{
  "resourceType": "Bundle",
  "id": "SpecificationProductBundle",
  "meta": {
    "profile": [
      "http://hl7.org/fhir/us/pq-cmc-fda/StructureDefinition/cmc-ectd-document-sp4151"
    ]
  },
  "type": "document",
  "identifier": {
    "system": "urn:ietf:rfc:3986",
    "value": "urn:uuid:34a0748d-b199-4a2e-a5bc-0f880886fef7"
  },
  "timestamp": "2023-12-15T22:33:13.089Z",
  "entry": [
    {
      "resource": {
        "resourceType": "Composition",
        "id": "d332acdf-4874-407b-9950-528f14c6bea2",
        "meta": {
          "profile": [
            "http://hl7.org/fhir/us/pq-cmc-fda/StructureDefinition/ectd-composition-sp4151"
          ]
        },
        "status": "final",
        "identifier": [
          {
            "value": "ExampleSpecification"
          }
        ],
        "type": {
          "coding": [
            {
              "code": "ich_3.2.p.5.1",
              "system": "http://terminology.hl7.org/temporary-uri/codeSystem/ICH-context-of-use",
              "display": "Specification(s)"
            }
          ]
        },
        "author": [
          {
            "reference": "urn:uuid:4f3e9af1-306b-4fad-bf04-7881400b266a"
          }
        ],
        "date": "2023-12-15T22:33:13.089Z",
        "title": "Quality Specification for an example Drug Product",
        "section": [
          {
            "title": "32P51",
            "entry": [
              {
                "reference": "urn:uuid:aa514363-d43f-4052-b44e-b67aa4d6dee7"
              }
            ]
          }
        ]
      },
      "fullUrl": "urn:uuid:d332acdf-4874-407b-9950-528f14c6bea2"
    },
    {
      "resource": {
        "resourceType": "PlanDefinition",
        "id": "aa514363-d43f-4052-b44e-b67aa4d6dee7",
        "meta": {
          "profile": [
            "http://hl7.org/fhir/us/pq-cmc-fda/StructureDefinition/pqcmc-quality-specification"
          ]
        },
        "extension": [
          {
            "url": "http://hl7.org/fhir/us/pq-cmc-fda/StructureDefinition/pq-specification-status-extension",
            "valueCodeableConcept": {
              "coding": [
                {
                  "code": "C134011",
                  "system": "http://ncicb.nci.nih.gov/xml/owl/EVS/Thesaurus.owl",
                  "display": "Not Approved"
                }
              ]
            }
          }
        ],
        "type": {
          "coding": [
            {
              "code": "workflow-definition",
              "system": "http://terminology.hl7.org/CodeSystem/plan-definition-type",
              "display": "Workflow Definition"
            },
            {
              "code": "C134021",
              "system": "http://ncicb.nci.nih.gov/xml/owl/EVS/Thesaurus.owl",
              "display": "Drug Product"
            }
          ]
        },
        "action": [
          {
            "reason": [
              {
                "extension": [
                  {
                    "url": "http://hl7.org/fhir/us/pq-cmc-fda/StructureDefinition/pq-hierarchical-level-extension",
                    "valuePositiveInt": 1
                  }
                ],
                "coding": [
                  {
                    "code": "C138993",
                    "system": "http://ncicb.nci.nih.gov/xml/owl/EVS/Thesaurus.owl",
                    "display": "Identification"
                  }
                ]
              }
            ],
            "documentation": [
              {
                "type": "documentation",
                "label": "USP <197>"
              }
            ],
            "relatedAction": [
              {
                "relationship": "concurrent",
                "targetId": "84d64dd8-b799-418a-a713-a854c4d3c2b9"
              }
            ],
            "id": "2047a6b6-e3fc-4071-8989-526297579091",
            "prefix": "Single Stage",
            "title": "Spectrophotometry Identification",
            "description": "Alternate",
            "code": {
              "coding": [
                {
                  "code": "C96102",
                  "system": "http://ncicb.nci.nih.gov/xml/owl/EVS/Thesaurus.owl",
                  "display": "Compendial"
                }
              ],
              "text": "Spectrophotometry"
            },
            "goalId": [
              "32649771-1290-4386-9cf7-7a72274f22b4"
            ]
          },
          {
            "reason": [
              {
                "extension": [
                  {
                    "url": "http://hl7.org/fhir/us/pq-cmc-fda/StructureDefinition/pq-hierarchical-level-extension",
                    "valuePositiveInt": 1
                  }
                ],
                "coding": [
                  {
                    "code": "C138993",
                    "system": "http://ncicb.nci.nih.gov/xml/owl/EVS/Thesaurus.owl",
                    "display": "Identification"
                  }
                ]
              }
            ],
            "documentation": [
              {
                "type": "documentation",
                "label": "EX-TEST-01"
              }
            ],
            "relatedAction": [
              {
                "relationship": "concurrent",
                "targetId": "2047a6b6-e3fc-4071-8989-526297579091"
              }
            ],
            "id": "84d64dd8-b799-418a-a713-a854c4d3c2b9",
            "linkId": "2047a6b6-e3fc-4071-8989-526297579091",
            "prefix": "Single Stage",
            "title": "Identity - Ferric Chloride",
            "description": "Alternate",
            "code": {
              "coding": [
                {
                  "code": "C96103",
                  "system": "http://ncicb.nci.nih.gov/xml/owl/EVS/Thesaurus.owl",
                  "display": "Proprietary"
                }
              ],
              "text": "HPLC"
            },
            "goalId": [
              "59a4ca76-858e-4d58-8e5f-88e75f51ec33"
            ]
          },
          {
            "reason": [
              {
                "extension": [
                  {
                    "url": "http://hl7.org/fhir/us/pq-cmc-fda/StructureDefinition/pq-hierarchical-level-extension",
                    "valuePositiveInt": 1
                  }
                ],
                "coding": [
                  {
                    "code": "C134255",
                    "system": "http://ncicb.nci.nih.gov/xml/owl/EVS/Thesaurus.owl",
                    "display": "Loss on Drying"
                  }
                ]
              }
            ],
            "documentation": [
              {
                "type": "documentation",
                "label": "USP <731>"
              }
            ],
            "id": "838e66ce-f4b0-47a5-8ea0-aa7882a84303",
            "prefix": "Single Stage",
            "title": "Loss on Drying",
            "code": {
              "coding": [
                {
                  "code": "C96102",
                  "system": "http://ncicb.nci.nih.gov/xml/owl/EVS/Thesaurus.owl",
                  "display": "Compendial"
                }
              ],
              "text": "Visual"
            },
            "goalId": [
              "c40aa176-e6aa-4fe4-869d-6550ee992903"
            ]
          },
          {
            "reason": [
              {
                "extension": [
                  {
                    "url": "http://hl7.org/fhir/us/pq-cmc-fda/StructureDefinition/pq-hierarchical-level-extension",
                    "valuePositiveInt": 1
                  }
                ],
                "coding": [
                  {
                    "code": "C205026",
                    "system": "http://ncicb.nci.nih.gov/xml/owl/EVS/Thesaurus.owl",
                    "display": "Organoleptic"
                  }
                ]
              },
              {
                "extension": [
                  {
                    "url": "http://hl7.org/fhir/us/pq-cmc-fda/StructureDefinition/pq-hierarchical-level-extension",
                    "valuePositiveInt": 2
                  }
                ],
                "coding": [
                  {
                    "code": "C134262",
                    "system": "http://ncicb.nci.nih.gov/xml/owl/EVS/Thesaurus.owl",
                    "display": "Color of Solution"
                  }
                ]
              }
            ],
            "documentation": [
              {
                "type": "documentation",
                "label": "USP <271>"
              }
            ],
            "id": "3510686b-fb93-4980-a41c-0a3754be7f37",
            "prefix": "Single Stage",
            "title": "Readily Carbonizable Sub",
            "code": {
              "coding": [
                {
                  "code": "C96102",
                  "system": "http://ncicb.nci.nih.gov/xml/owl/EVS/Thesaurus.owl",
                  "display": "Compendial"
                }
              ],
              "text": "Visual"
            },
            "goalId": [
              "b122987d-586c-481b-951c-6202e660158d"
            ]
          },
          {
            "reason": [
              {
                "extension": [
                  {
                    "url": "http://hl7.org/fhir/us/pq-cmc-fda/StructureDefinition/pq-hierarchical-level-extension",
                    "valuePositiveInt": 1
                  }
                ],
                "coding": [
                  {
                    "code": "C134276",
                    "system": "http://ncicb.nci.nih.gov/xml/owl/EVS/Thesaurus.owl",
                    "display": "Residue on Ignition"
                  }
                ]
              }
            ],
            "documentation": [
              {
                "type": "documentation",
                "label": "USP <281>"
              }
            ],
            "id": "b2e18cc4-f494-4ef0-be34-810d8d4b439b",
            "prefix": "Single Stage",
            "title": "Residue on ignition (Ash)",
            "code": {
              "coding": [
                {
                  "code": "C96102",
                  "system": "http://ncicb.nci.nih.gov/xml/owl/EVS/Thesaurus.owl",
                  "display": "Compendial"
                }
              ],
              "text": "Visual"
            },
            "goalId": [
              "929747ad-e83a-46f0-bbbc-133ee951e819"
            ]
          },
          {
            "reason": [
              {
                "extension": [
                  {
                    "url": "http://hl7.org/fhir/us/pq-cmc-fda/StructureDefinition/pq-hierarchical-level-extension",
                    "valuePositiveInt": 1
                  }
                ],
                "coding": [
                  {
                    "code": "C193381",
                    "system": "http://ncicb.nci.nih.gov/xml/owl/EVS/Thesaurus.owl",
                    "display": "Foreign and Particulate Matter"
                  }
                ]
              }
            ],
            "documentation": [
              {
                "type": "documentation",
                "label": "EX-TEST-02"
              }
            ],
            "id": "d315a1c3-dd93-498d-8ae3-dc0d4b3bec75",
            "prefix": "Single Stage",
            "title": "Substances insoluble in sodium carbonate TS",
            "code": {
              "coding": [
                {
                  "code": "C96103",
                  "system": "http://ncicb.nci.nih.gov/xml/owl/EVS/Thesaurus.owl",
                  "display": "Proprietary"
                }
              ],
              "text": "Visual"
            },
            "goalId": [
              "8d7c85c2-7a4b-432e-ac94-226f296e4fca"
            ]
          },
          {
            "reason": [
              {
                "extension": [
                  {
                    "url": "http://hl7.org/fhir/us/pq-cmc-fda/StructureDefinition/pq-hierarchical-level-extension",
                    "valuePositiveInt": 1
                  }
                ],
                "coding": [
                  {
                    "code": "C204971",
                    "system": "http://ncicb.nci.nih.gov/xml/owl/EVS/Thesaurus.owl",
                    "display": "Impurity"
                  }
                ]
              },
              {
                "extension": [
                  {
                    "url": "http://hl7.org/fhir/us/pq-cmc-fda/StructureDefinition/pq-hierarchical-level-extension",
                    "valuePositiveInt": 2
                  }
                ],
                "coding": [
                  {
                    "code": "C205039",
                    "system": "http://ncicb.nci.nih.gov/xml/owl/EVS/Thesaurus.owl",
                    "display": "Specified Identified Impurity"
                  }
                ]
              }
            ],
            "documentation": [
              {
                "type": "documentation",
                "label": "USP <221>"
              }
            ],
            "id": "6ec15bbc-a78a-4351-9ad8-fcf97e839ab9",
            "prefix": "Single Stage",
            "title": "Impurities - Chloride (Cl)",
            "code": {
              "coding": [
                {
                  "code": "C96102",
                  "system": "http://ncicb.nci.nih.gov/xml/owl/EVS/Thesaurus.owl",
                  "display": "Compendial"
                }
              ],
              "text": "FTIR"
            },
            "goalId": [
              "de4f962a-d486-486d-8d84-f2d1635646b4"
            ]
          },
          {
            "reason": [
              {
                "extension": [
                  {
                    "url": "http://hl7.org/fhir/us/pq-cmc-fda/StructureDefinition/pq-hierarchical-level-extension",
                    "valuePositiveInt": 1
                  }
                ],
                "coding": [
                  {
                    "code": "C204971",
                    "system": "http://ncicb.nci.nih.gov/xml/owl/EVS/Thesaurus.owl",
                    "display": "Impurity"
                  }
                ]
              },
              {
                "extension": [
                  {
                    "url": "http://hl7.org/fhir/us/pq-cmc-fda/StructureDefinition/pq-hierarchical-level-extension",
                    "valuePositiveInt": 2
                  }
                ],
                "coding": [
                  {
                    "code": "C205039",
                    "system": "http://ncicb.nci.nih.gov/xml/owl/EVS/Thesaurus.owl",
                    "display": "Specified Identified Impurity"
                  }
                ]
              }
            ],
            "documentation": [
              {
                "type": "documentation",
                "label": "USP <221>"
              }
            ],
            "id": "fa31b425-896c-4b25-b693-ccdd14e0c8ee",
            "prefix": "Single Stage",
            "title": "Impurities - Sulfate (SO4)",
            "code": {
              "coding": [
                {
                  "code": "C96102",
                  "system": "http://ncicb.nci.nih.gov/xml/owl/EVS/Thesaurus.owl",
                  "display": "Compendial"
                }
              ],
              "text": "FTIR"
            },
            "goalId": [
              "b46dce64-a009-46cd-ab95-21d1d5b4df77"
            ]
          },
          {
            "reason": [
              {
                "extension": [
                  {
                    "url": "http://hl7.org/fhir/us/pq-cmc-fda/StructureDefinition/pq-hierarchical-level-extension",
                    "valuePositiveInt": 1
                  }
                ],
                "coding": [
                  {
                    "code": "C204971",
                    "system": "http://ncicb.nci.nih.gov/xml/owl/EVS/Thesaurus.owl",
                    "display": "Impurity"
                  }
                ]
              },
              {
                "extension": [
                  {
                    "url": "http://hl7.org/fhir/us/pq-cmc-fda/StructureDefinition/pq-hierarchical-level-extension",
                    "valuePositiveInt": 2
                  }
                ],
                "coding": [
                  {
                    "code": "C205014",
                    "system": "http://ncicb.nci.nih.gov/xml/owl/EVS/Thesaurus.owl",
                    "display": "Elemental Impurity"
                  }
                ]
              }
            ],
            "documentation": [
              {
                "type": "documentation",
                "label": "USP <231>"
              }
            ],
            "id": "cef5aa1a-8770-4f78-9bc3-da9f18b77e5c",
            "prefix": "Single Stage",
            "title": "Elemental Impurities - Limits",
            "code": {
              "coding": [
                {
                  "code": "C96102",
                  "system": "http://ncicb.nci.nih.gov/xml/owl/EVS/Thesaurus.owl",
                  "display": "Compendial"
                }
              ],
              "text": "UV"
            },
            "goalId": [
              "5566f501-37e1-49fb-8783-b20c074ec0c3"
            ]
          },
          {
            "reason": [
              {
                "extension": [
                  {
                    "url": "http://hl7.org/fhir/us/pq-cmc-fda/StructureDefinition/pq-hierarchical-level-extension",
                    "valuePositiveInt": 1
                  }
                ],
                "coding": [
                  {
                    "code": "C204971",
                    "system": "http://ncicb.nci.nih.gov/xml/owl/EVS/Thesaurus.owl",
                    "display": "Impurity"
                  }
                ]
              },
              {
                "extension": [
                  {
                    "url": "http://hl7.org/fhir/us/pq-cmc-fda/StructureDefinition/pq-hierarchical-level-extension",
                    "valuePositiveInt": 2
                  }
                ],
                "coding": [
                  {
                    "code": "C134254",
                    "system": "http://ncicb.nci.nih.gov/xml/owl/EVS/Thesaurus.owl",
                    "display": "Impurities/Degradation Products/Related Substances"
                  }
                ]
              }
            ],
            "documentation": [
              {
                "type": "documentation",
                "label": "EX-TEST-03"
              }
            ],
            "id": "d5871ee2-8b06-414c-91b4-4b30f5881c8a",
            "prefix": "Single Stage",
            "title": "Limit of Free Salicylic Acid",
            "code": {
              "coding": [
                {
                  "code": "C96103",
                  "system": "http://ncicb.nci.nih.gov/xml/owl/EVS/Thesaurus.owl",
                  "display": "Proprietary"
                }
              ],
              "text": "Titration"
            },
            "goalId": [
              "db19e3ab-e28b-4477-8bd7-2409093ed5a3"
            ]
          },
          {
            "reason": [
              {
                "extension": [
                  {
                    "url": "http://hl7.org/fhir/us/pq-cmc-fda/StructureDefinition/pq-hierarchical-level-extension",
                    "valuePositiveInt": 1
                  }
                ],
                "coding": [
                  {
                    "code": "C204971",
                    "system": "http://ncicb.nci.nih.gov/xml/owl/EVS/Thesaurus.owl",
                    "display": "Impurity"
                  }
                ]
              },
              {
                "extension": [
                  {
                    "url": "http://hl7.org/fhir/us/pq-cmc-fda/StructureDefinition/pq-hierarchical-level-extension",
                    "valuePositiveInt": 2
                  }
                ],
                "coding": [
                  {
                    "code": "C134002",
                    "system": "http://ncicb.nci.nih.gov/xml/owl/EVS/Thesaurus.owl",
                    "display": "Residual Solvent"
                  }
                ]
              }
            ],
            "documentation": [
              {
                "type": "documentation",
                "label": "USP <467>"
              }
            ],
            "id": "e192fc72-c4b1-419f-8098-6f65037a3962",
            "prefix": "Single Stage",
            "title": "Organic Volatile Impurities",
            "code": {
              "coding": [
                {
                  "code": "C96102",
                  "system": "http://ncicb.nci.nih.gov/xml/owl/EVS/Thesaurus.owl",
                  "display": "Compendial"
                }
              ],
              "text": "Visual"
            },
            "goalId": [
              "82370588-7aae-4556-9262-a7f50dbd01aa",
              "cae2da87-c4b7-43d0-9e8e-c64d0d4df6c2",
              "28ad4d5b-d975-4f6e-9792-b3d9cc7ce279",
              "33fa051c-6b3c-4e4d-bd4e-09d39fc253b3"
            ]
          },
          {
            "reason": [
              {
                "extension": [
                  {
                    "url": "http://hl7.org/fhir/us/pq-cmc-fda/StructureDefinition/pq-hierarchical-level-extension",
                    "valuePositiveInt": 1
                  }
                ],
                "coding": [
                  {
                    "code": "C60819",
                    "system": "http://ncicb.nci.nih.gov/xml/owl/EVS/Thesaurus.owl",
                    "display": "Assay"
                  }
                ]
              },
              {
                "extension": [
                  {
                    "url": "http://hl7.org/fhir/us/pq-cmc-fda/StructureDefinition/pq-hierarchical-level-extension",
                    "valuePositiveInt": 2
                  }
                ],
                "coding": [
                  {
                    "code": "C204845",
                    "system": "http://ncicb.nci.nih.gov/xml/owl/EVS/Thesaurus.owl",
                    "display": "Active Ingredient Content"
                  }
                ]
              }
            ],
            "documentation": [
              {
                "type": "documentation",
                "label": "EX-TEST-04"
              }
            ],
            "id": "b7e88ea0-3c61-49db-86ec-8d01f8b7667b",
            "prefix": "Single Stage",
            "title": "Assay Dry Basis",
            "code": {
              "coding": [
                {
                  "code": "C96103",
                  "system": "http://ncicb.nci.nih.gov/xml/owl/EVS/Thesaurus.owl",
                  "display": "Proprietary"
                }
              ],
              "text": "Visual"
            },
            "goalId": [
              "9100e938-42ff-4004-8473-ed5090d66f3a"
            ]
          },
          {
            "reason": [
              {
                "extension": [
                  {
                    "url": "http://hl7.org/fhir/us/pq-cmc-fda/StructureDefinition/pq-hierarchical-level-extension",
                    "valuePositiveInt": 1
                  }
                ],
                "coding": [
                  {
                    "code": "C134253",
                    "system": "http://ncicb.nci.nih.gov/xml/owl/EVS/Thesaurus.owl",
                    "display": "Dissolution"
                  }
                ]
              }
            ],
            "documentation": [
              {
                "type": "documentation",
                "label": "EX-TEST-05"
              }
            ],
            "id": "6d1ba5a8-6590-496a-ad6b-ca68cfda2878",
            "title": "Dissolution - 30 minute",
            "code": {
              "coding": [
                {
                  "code": "C96103",
                  "system": "http://ncicb.nci.nih.gov/xml/owl/EVS/Thesaurus.owl",
                  "display": "Proprietary"
                }
              ],
              "text": "Visual"
            },
            "action": [
              {
                "linkId": "6d1ba5a8-6590-496a-ad6b-ca68cfda2878",
                "prefix": "Stage 1",
                "goalId": [
                  "af260128-f105-4692-ba40-49f21f12ad46",
                  "31d9dcac-bf72-420b-a415-c924155a83f4"
                ]
              },
              {
                "linkId": "6d1ba5a8-6590-496a-ad6b-ca68cfda2878",
                "prefix": "Stage 2",
                "goalId": [
                  "47c0d685-0b23-4637-9af8-a554e4fad7ec",
                  "14d3dee8-e024-4367-b0a2-a2a809303ee0"
                ]
              },
              {
                "linkId": "6d1ba5a8-6590-496a-ad6b-ca68cfda2878",
                "prefix": "Stage 3",
                "goalId": [
                  "15309a78-92a9-4cf9-aee1-452d6d2f7a91",
                  "666ace1e-bd29-4263-9ae2-2391106326bb"
                ]
              }
            ]
          }
        ],
        "goal": [
          {
            "target": [
              {
                "modifierExtension": [
                  {
                    "url": "http://hl7.org/fhir/us/pq-cmc-fda/StructureDefinition/pq-target-range",
                    "extension": [
                      {
                        "url": "low",
                        "valueQuantity": {
                          "value": 2,
                          "code": "[pH]",
                          "system": "http://unitsofmeasure.org",
                          "unit": "[pH]",
                          "comparator": ">="
                        }
                      },
                      {
                        "url": "high",
                        "valueQuantity": {
                          "value": 3,
                          "code": "[pH]",
                          "system": "http://unitsofmeasure.org",
                          "unit": "[pH]",
                          "comparator": "<"
                        }
                      }
                    ]
                  }
                ]
              }
            ],
            "id": "32649771-1290-4386-9cf7-7a72274f22b4",
            "description": {
              "text": "Average of 10 between 2-3 pH"
            },
            "addresses": [
              {
                "coding": [
                  {
                    "code": "C134029",
                    "system": "http://ncicb.nci.nih.gov/xml/owl/EVS/Thesaurus.owl",
                    "display": "Release"
                  }
                ]
              },
              {
                "coding": [
                  {
                    "code": "C134030",
                    "system": "http://ncicb.nci.nih.gov/xml/owl/EVS/Thesaurus.owl",
                    "display": "Stability"
                  }
                ]
              }
            ]
          },
          {
            "id": "59a4ca76-858e-4d58-8e5f-88e75f51ec33",
            "description": {
              "text": "Maxima only at the same wavelengths compared to reference standard"
            },
            "addresses": [
              {
                "coding": [
                  {
                    "code": "C134029",
                    "system": "http://ncicb.nci.nih.gov/xml/owl/EVS/Thesaurus.owl",
                    "display": "Release"
                  }
                ]
              },
              {
                "coding": [
                  {
                    "code": "C134030",
                    "system": "http://ncicb.nci.nih.gov/xml/owl/EVS/Thesaurus.owl",
                    "display": "Stability"
                  }
                ]
              }
            ],
            "target": [
              {
                "detailString": "Conforms"
              }
            ]
          },
          {
            "id": "c40aa176-e6aa-4fe4-869d-6550ee992903",
            "description": {
              "text": "<= 0.5 %"
            },
            "addresses": [
              {
                "coding": [
                  {
                    "code": "C134029",
                    "system": "http://ncicb.nci.nih.gov/xml/owl/EVS/Thesaurus.owl",
                    "display": "Release"
                  }
                ]
              },
              {
                "coding": [
                  {
                    "code": "C134030",
                    "system": "http://ncicb.nci.nih.gov/xml/owl/EVS/Thesaurus.owl",
                    "display": "Stability"
                  }
                ]
              }
            ],
            "target": [
              {
                "detailQuantity": {
                  "value": 0.5,
                  "code": "%",
                  "system": "http://unitsofmeasure.org",
                  "unit": "percent",
                  "comparator": "<="
                }
              }
            ]
          },
          {
            "id": "b122987d-586c-481b-951c-6202e660158d",
            "description": {
              "text": "Color of solution is clear"
            },
            "addresses": [
              {
                "coding": [
                  {
                    "code": "C134029",
                    "system": "http://ncicb.nci.nih.gov/xml/owl/EVS/Thesaurus.owl",
                    "display": "Release"
                  }
                ]
              },
              {
                "coding": [
                  {
                    "code": "C134030",
                    "system": "http://ncicb.nci.nih.gov/xml/owl/EVS/Thesaurus.owl",
                    "display": "Stability"
                  }
                ]
              }
            ],
            "target": [
              {
                "detailString": "Conforms"
              }
            ]
          },
          {
            "id": "929747ad-e83a-46f0-bbbc-133ee951e819",
            "description": {
              "text": "<= 0.05 %"
            },
            "addresses": [
              {
                "coding": [
                  {
                    "code": "C134029",
                    "system": "http://ncicb.nci.nih.gov/xml/owl/EVS/Thesaurus.owl",
                    "display": "Release"
                  }
                ]
              },
              {
                "coding": [
                  {
                    "code": "C134030",
                    "system": "http://ncicb.nci.nih.gov/xml/owl/EVS/Thesaurus.owl",
                    "display": "Stability"
                  }
                ]
              }
            ],
            "target": [
              {
                "detailQuantity": {
                  "value": 0.05,
                  "code": "%",
                  "system": "http://unitsofmeasure.org",
                  "unit": "percent",
                  "comparator": "<="
                }
              }
            ]
          },
          {
            "id": "8d7c85c2-7a4b-432e-ac94-226f296e4fca",
            "description": {
              "text": "No Particulate Matter detected"
            },
            "addresses": [
              {
                "coding": [
                  {
                    "code": "C134029",
                    "system": "http://ncicb.nci.nih.gov/xml/owl/EVS/Thesaurus.owl",
                    "display": "Release"
                  }
                ]
              },
              {
                "coding": [
                  {
                    "code": "C134030",
                    "system": "http://ncicb.nci.nih.gov/xml/owl/EVS/Thesaurus.owl",
                    "display": "Stability"
                  }
                ]
              }
            ],
            "target": [
              {
                "detailString": "pass"
              }
            ]
          },
          {
            "id": "de4f962a-d486-486d-8d84-f2d1635646b4",
            "description": {
              "text": "<= 0.014 %"
            },
            "addresses": [
              {
                "coding": [
                  {
                    "code": "C134029",
                    "system": "http://ncicb.nci.nih.gov/xml/owl/EVS/Thesaurus.owl",
                    "display": "Release"
                  }
                ]
              },
              {
                "coding": [
                  {
                    "code": "C134030",
                    "system": "http://ncicb.nci.nih.gov/xml/owl/EVS/Thesaurus.owl",
                    "display": "Stability"
                  }
                ]
              }
            ],
            "target": [
              {
                "detailQuantity": {
                  "value": 0.014,
                  "code": "%",
                  "system": "http://unitsofmeasure.org",
                  "unit": "percent",
                  "comparator": "<="
                }
              }
            ]
          },
          {
            "id": "b46dce64-a009-46cd-ab95-21d1d5b4df77",
            "description": {
              "text": "<= 0.04 %"
            },
            "addresses": [
              {
                "coding": [
                  {
                    "code": "C134029",
                    "system": "http://ncicb.nci.nih.gov/xml/owl/EVS/Thesaurus.owl",
                    "display": "Release"
                  }
                ]
              },
              {
                "coding": [
                  {
                    "code": "C134030",
                    "system": "http://ncicb.nci.nih.gov/xml/owl/EVS/Thesaurus.owl",
                    "display": "Stability"
                  }
                ]
              }
            ],
            "target": [
              {
                "detailQuantity": {
                  "value": 0.04,
                  "code": "%",
                  "system": "http://unitsofmeasure.org",
                  "unit": "percent",
                  "comparator": "<="
                }
              }
            ]
          },
          {
            "id": "5566f501-37e1-49fb-8783-b20c074ec0c3",
            "description": {
              "text": "<= 0.001 %"
            },
            "addresses": [
              {
                "coding": [
                  {
                    "code": "C134029",
                    "system": "http://ncicb.nci.nih.gov/xml/owl/EVS/Thesaurus.owl",
                    "display": "Release"
                  }
                ]
              },
              {
                "coding": [
                  {
                    "code": "C134030",
                    "system": "http://ncicb.nci.nih.gov/xml/owl/EVS/Thesaurus.owl",
                    "display": "Stability"
                  }
                ]
              }
            ],
            "target": [
              {
                "detailQuantity": {
                  "value": 0.001,
                  "code": "%",
                  "system": "http://unitsofmeasure.org",
                  "unit": "percent",
                  "comparator": "<="
                }
              }
            ]
          },
          {
            "id": "db19e3ab-e28b-4477-8bd7-2409093ed5a3",
            "description": {
              "text": "Color intenssity of feriric ammonium sulfate TS is not less that than salicylic acid (0.1%) solution"
            },
            "addresses": [
              {
                "coding": [
                  {
                    "code": "C134029",
                    "system": "http://ncicb.nci.nih.gov/xml/owl/EVS/Thesaurus.owl",
                    "display": "Release"
                  }
                ]
              },
              {
                "coding": [
                  {
                    "code": "C134030",
                    "system": "http://ncicb.nci.nih.gov/xml/owl/EVS/Thesaurus.owl",
                    "display": "Stability"
                  }
                ]
              }
            ],
            "target": [
              {
                "detailString": "pass"
              }
            ]
          },
          {
            "id": "82370588-7aae-4556-9262-a7f50dbd01aa",
            "description": {
              "text": "Ethanol < 0.2%"
            },
            "addresses": [
              {
                "coding": [
                  {
                    "code": "C134029",
                    "system": "http://ncicb.nci.nih.gov/xml/owl/EVS/Thesaurus.owl",
                    "display": "Release"
                  }
                ]
              },
              {
                "coding": [
                  {
                    "code": "C134030",
                    "system": "http://ncicb.nci.nih.gov/xml/owl/EVS/Thesaurus.owl",
                    "display": "Stability"
                  }
                ]
              }
            ],
            "target": [
              {
                "measure": {
                  "text": "Ethanol"
                },
                "detailQuantity": {
                  "value": 0.2,
                  "code": "%",
                  "system": "http://unitsofmeasure.org",
                  "unit": "percent",
                  "comparator": "<="
                }
              }
            ]
          },
          {
            "id": "cae2da87-c4b7-43d0-9e8e-c64d0d4df6c2",
            "description": {
              "text": "Ethyl Ether < 0.1%"
            },
            "addresses": [
              {
                "coding": [
                  {
                    "code": "C134029",
                    "system": "http://ncicb.nci.nih.gov/xml/owl/EVS/Thesaurus.owl",
                    "display": "Release"
                  }
                ]
              }
            ],
            "target": [
              {
                "measure": {
                  "text": "Ethyl Ether"
                },
                "detailQuantity": {
                  "value": 0.1,
                  "code": "%",
                  "system": "http://unitsofmeasure.org",
                  "unit": "percent",
                  "comparator": "<="
                }
              }
            ]
          },
          {
            "id": "28ad4d5b-d975-4f6e-9792-b3d9cc7ce279",
            "description": {
              "text": "1—propanol < 0.15%"
            },
            "addresses": [
              {
                "coding": [
                  {
                    "code": "C134029",
                    "system": "http://ncicb.nci.nih.gov/xml/owl/EVS/Thesaurus.owl",
                    "display": "Release"
                  }
                ]
              }
            ],
            "target": [
              {
                "measure": {
                  "text": "1—propanol"
                },
                "detailQuantity": {
                  "value": 0.15,
                  "code": "%",
                  "system": "http://unitsofmeasure.org",
                  "unit": "percent",
                  "comparator": "<="
                }
              }
            ]
          },
          {
            "id": "33fa051c-6b3c-4e4d-bd4e-09d39fc253b3",
            "description": {
              "text": "Total < 0.5%"
            },
            "addresses": [
              {
                "coding": [
                  {
                    "code": "C134029",
                    "system": "http://ncicb.nci.nih.gov/xml/owl/EVS/Thesaurus.owl",
                    "display": "Release"
                  }
                ]
              }
            ],
            "target": [
              {
                "measure": {
                  "text": "Total Residual Solvents"
                },
                "detailQuantity": {
                  "value": 0.5,
                  "code": "%",
                  "system": "http://unitsofmeasure.org",
                  "unit": "percent",
                  "comparator": "<="
                }
              }
            ]
          },
          {
            "target": [
              {
                "modifierExtension": [
                  {
                    "url": "http://hl7.org/fhir/us/pq-cmc-fda/StructureDefinition/pq-target-range",
                    "extension": [
                      {
                        "url": "low",
                        "valueQuantity": {
                          "value": 99.5,
                          "code": "%",
                          "system": "http://unitsofmeasure.org",
                          "unit": "percent",
                          "comparator": ">="
                        }
                      },
                      {
                        "url": "high",
                        "valueQuantity": {
                          "value": 100.5,
                          "code": "%",
                          "system": "http://unitsofmeasure.org",
                          "unit": "percent",
                          "comparator": "<="
                        }
                      }
                    ]
                  }
                ]
              }
            ],
            "id": "9100e938-42ff-4004-8473-ed5090d66f3a",
            "description": {
              "text": "99.5 - 100.5 %"
            },
            "addresses": [
              {
                "coding": [
                  {
                    "code": "C134029",
                    "system": "http://ncicb.nci.nih.gov/xml/owl/EVS/Thesaurus.owl",
                    "display": "Release"
                  }
                ]
              },
              {
                "coding": [
                  {
                    "code": "C134030",
                    "system": "http://ncicb.nci.nih.gov/xml/owl/EVS/Thesaurus.owl",
                    "display": "Stability"
                  }
                ]
              }
            ]
          },
          {
            "id": "af260128-f105-4692-ba40-49f21f12ad46",
            "description": {
              "text": "n=6"
            },
            "addresses": [
              {
                "coding": [
                  {
                    "code": "C134029",
                    "system": "http://ncicb.nci.nih.gov/xml/owl/EVS/Thesaurus.owl",
                    "display": "Release"
                  }
                ]
              }
            ],
            "target": [
              {
                "detailInteger": 6
              }
            ]
          },
          {
            "id": "31d9dcac-bf72-420b-a415-c924155a83f4",
            "description": {
              "text": "Each unit is NLT Q + 5%"
            },
            "addresses": [
              {
                "coding": [
                  {
                    "code": "C134029",
                    "system": "http://ncicb.nci.nih.gov/xml/owl/EVS/Thesaurus.owl",
                    "display": "Release"
                  }
                ]
              }
            ],
            "target": [
              {
                "detailQuantity": {
                  "value": 85,
                  "code": "%",
                  "system": "http://unitsofmeasure.org",
                  "unit": "percent",
                  "comparator": "<="
                }
              }
            ]
          },
          {
            "id": "47c0d685-0b23-4637-9af8-a554e4fad7ec",
            "description": {
              "text": "n=6"
            },
            "addresses": [
              {
                "coding": [
                  {
                    "code": "C134029",
                    "system": "http://ncicb.nci.nih.gov/xml/owl/EVS/Thesaurus.owl",
                    "display": "Release"
                  }
                ]
              }
            ],
            "target": [
              {
                "detailInteger": 6
              }
            ]
          },
          {
            "id": "14d3dee8-e024-4367-b0a2-a2a809303ee0",
            "description": {
              "text": "Average of 12 units (S1 + S2) is equal to or greater than Q and no unit is less than Q - 15%"
            },
            "addresses": [
              {
                "coding": [
                  {
                    "code": "C134029",
                    "system": "http://ncicb.nci.nih.gov/xml/owl/EVS/Thesaurus.owl",
                    "display": "Release"
                  }
                ]
              }
            ],
            "target": [
              {
                "measure": {
                  "text": "Average of 12 units"
                },
                "detailQuantity": {
                  "value": 80,
                  "code": "%",
                  "system": "http://unitsofmeasure.org",
                  "unit": "percent",
                  "comparator": "<="
                }
              },
              {
                "measure": {
                  "text": "unit"
                },
                "detailQuantity": {
                  "value": 65,
                  "code": "%",
                  "system": "http://unitsofmeasure.org",
                  "unit": "percent",
                  "comparator": "<="
                }
              }
            ]
          },
          {
            "id": "15309a78-92a9-4cf9-aee1-452d6d2f7a91",
            "description": {
              "text": "Average of 24 units (S1 + S2 + S3) is equal to or greater than Q, not more than 2 units are less than Q - 15%, no unit is less than Q - 25%"
            },
            "addresses": [
              {
                "coding": [
                  {
                    "code": "C134029",
                    "system": "http://ncicb.nci.nih.gov/xml/owl/EVS/Thesaurus.owl",
                    "display": "Release"
                  }
                ]
              }
            ],
            "target": [
              {
                "measure": {
                  "text": "Average of 24 units"
                },
                "detailQuantity": {
                  "value": 80,
                  "code": "%",
                  "system": "http://unitsofmeasure.org",
                  "unit": "percent",
                  "comparator": "<="
                }
              },
              {
                "measure": {
                  "text": "units less than Q - 15%"
                },
                "detailQuantity": {
                  "value": 2,
                  "code": "[Amb'a'1'U]",
                  "system": "http://unitsofmeasure.org",
                  "unit": "Amb a 1 units",
                  "comparator": "<="
                }
              },
              {
                "measure": {
                  "text": "units less than Q - 25%"
                },
                "detailQuantity": {
                  "value": 0,
                  "code": "[Amb'a'1'U]",
                  "system": "http://unitsofmeasure.org",
                  "unit": "Amb a 1 units",
                  "comparator": "<="
                }
              }
            ]
          },
          {
            "id": "666ace1e-bd29-4263-9ae2-2391106326bb",
            "description": {
              "text": "n=12"
            },
            "addresses": [
              {
                "coding": [
                  {
                    "code": "C134029",
                    "system": "http://ncicb.nci.nih.gov/xml/owl/EVS/Thesaurus.owl",
                    "display": "Release"
                  }
                ]
              }
            ],
            "target": [
              {
                "detailInteger": 12
              }
            ]
          }
        ],
        "identifier": [
          {
            "value": "ExampleSpecification"
          }
        ],
        "version": "1.0",
        "title": "Quality Specification for OXAZEPAM",
        "status": "active",
        "subjectReference": {
          "reference": "urn:uuid:89676a69-1fe7-422c-ab00-92abe4ef6ea9"
        },
        "date": "2022-12-08"
      },
      "fullUrl": "urn:uuid:aa514363-d43f-4052-b44e-b67aa4d6dee7"
    },
    {
      "resource": {
        "resourceType": "MedicinalProductDefinition",
        "id": "89676a69-1fe7-422c-ab00-92abe4ef6ea9",
        "meta": {
          "profile": [
            "http://hl7.org/fhir/us/pq-cmc-fda/StructureDefinition/pqcmc-drug-product-handle"
          ]
        },
        "name": [
          {
            "type": {
              "coding": [
                {
                  "code": "C96971",
                  "system": "http://ncicb.nci.nih.gov/xml/owl/EVS/Thesaurus.owl",
                  "display": "Nonproprietary Name"
                }
              ],
              "text": "Non-Proprietary"
            },
            "part": [
              {
                "type": {
                  "coding": [
                    {
                      "code": "SCI",
                      "system": "http://terminology.hl7.org/CodeSystem/v3-EntityNamePartQualifierR2"
                    }
                  ]
                },
                "part": "OXAZEPAM"
              },
              {
                "type": {
                  "coding": [
                    {
                      "code": "STR",
                      "system": "http://terminology.hl7.org/CodeSystem/v3-EntityNamePartQualifierR2"
                    }
                  ],
                  "text": "OXAZEPAM"
                },
                "part": "30mg"
              },
              {
                "type": {
                  "coding": [
                    {
                      "code": "SCI",
                      "system": "http://terminology.hl7.org/CodeSystem/v3-EntityNamePartQualifierR2"
                    }
                  ]
                },
                "part": "PROPRANOLOL HYDROCHLORIDE"
              },
              {
                "type": {
                  "coding": [
                    {
                      "code": "STR",
                      "system": "http://terminology.hl7.org/CodeSystem/v3-EntityNamePartQualifierR2"
                    }
                  ],
                  "text": "PROPRANOLOL HYDROCHLORIDE"
                },
                "part": "60mg"
              }
            ],
            "productName": "OXAZEPAM 30mg, PROPRANOLOL HYDROCHLORIDE 60mg"
          }
        ],
        "identifier": [
          {
            "value": "Example2BeadDrug"
          }
        ],
        "combinedPharmaceuticalDoseForm": {
          "coding": [
            {
              "code": "C25158",
              "system": "http://ncicb.nci.nih.gov/xml/owl/EVS/Thesaurus.owl",
              "display": "CAPSULE"
            }
          ]
        },
        "route": [
          {
            "coding": [
              {
                "code": "C38288",
                "system": "http://ncicb.nci.nih.gov/xml/owl/EVS/Thesaurus.owl",
                "display": "ORAL"
              }
            ]
          }
        ]
      },
      "fullUrl": "urn:uuid:89676a69-1fe7-422c-ab00-92abe4ef6ea9"
    },
    {
      "resource": {
        "resourceType": "Organization",
        "id": "4f3e9af1-306b-4fad-bf04-7881400b266a",
        "meta": {
          "profile": [
            "http://hl7.org/fhir/us/pq-cmc-fda/StructureDefinition/cmc-organization"
          ]
        },
        "identifier": [
          {
            "system": "urn:oid:1.3.6.1.4.1.519.1",
            "value": "143265222",
            "type": {
              "coding": [
                {
                  "code": "C134003",
                  "system": "http://ncicb.nci.nih.gov/xml/owl/EVS/Thesaurus.owl",
                  "display": "DUNS"
                }
              ]
            }
          }
        ],
        "name": "Wunderwerke",
        "contact": [
          {
            "address": {
              "type": "postal",
              "line": [
                "123 Scenic Road"
              ],
              "state": "CT",
              "city": "Bridgeport",
              "country": "USA",
              "postalCode": "65478",
              "text": "Wunderwerke, 123 Scenic Road, CT, Bridgeport, USA 65478"
            }
          }
        ]
      },
      "fullUrl": "urn:uuid:4f3e9af1-306b-4fad-bf04-7881400b266a"
    }
  ]
}
