{
  "resourceType": "Bundle",
  "id": "BatchFormulaBundle2Layer",
  "meta": {
    "profile": [
      "http://hl7.org/fhir/us/pq-cmc-fda/StructureDefinition/cmc-ectd-document-32p32"
    ]
  },
  "type": "document",
  "identifier": {
    "system": "urn:ietf:rfc:3986",
    "value": "urn:uuid:49d3b79e-b436-a242-93ba-b706b4364ab2"
  },
  "timestamp": "2024-08-29T12:34:56.789Z",
  "entry": [
    {
      "resource": {
        "resourceType": "Composition",
        "id": "c00b0003-c2bf-7547-8b1c-f1f399f99d5c",
        "meta": {
          "profile": [
            "http://hl7.org/fhir/us/pq-cmc-fda/StructureDefinition/ectd-composition-32p32"
          ]
        },
        "status": "final",
        "type": {
          "coding": [
            {
              "code": "ich_3.2.p.3.2",
              "system": "http://terminology.hl7.org/temporary-uri/codeSystem/ICH-context-of-use",
              "display": "Batch Formula"
            }
          ]
        },
        "section": [
          {
            "code": {
              "coding": [
                {
                  "code": "ich_3.2.p.3.2",
                  "system": "http://terminology.hl7.org/temporary-uri/codeSystem/ICH-context-of-use",
                  "display": "Batch Formula"
                }
              ]
            },
            "title": "Batch Formula",
            "entry": [
              {
                "reference": "urn:uuid:f0f3ff35-5cfa-6617-b8f1-b8167957f53c"
              }
            ]
          }
        ],
        "identifier": [
          {
            "value": "BatchFormulaComposition2layer"
          }
        ],
        "author": [
          {
            "reference": "urn:uuid:4f3e9af1-306b-4fad-bf04-7881400b266a"
          }
        ],
        "date": "2024-08-01T12:34:56.789Z",
        "title": "Batch formula example two layer tablet"
      },
      "fullUrl": "urn:uuid:c00b0003-c2bf-7547-8b1c-f1f399f99d5c"
    },
    {
      "resource": {
        "resourceType": "Organization",
        "id": "4f3e9af1-306b-4fad-bf04-7881400b266a",
        "meta": {
          "profile": [
            "http://hl7.org/fhir/us/pq-cmc-fda/StructureDefinition/cmc-organization"
          ]
        },
        "identifier": [
          {
            "system": "urn:oid:1.3.6.1.4.1.519.1",
            "value": "143265222",
            "type": {
              "coding": [
                {
                  "code": "C134003",
                  "system": "http://ncicb.nci.nih.gov/xml/owl/EVS/Thesaurus.owl",
                  "display": "DUNS"
                }
              ]
            }
          }
        ],
        "name": "Wunderwerke",
        "contact": [
          {
            "address": {
              "type": "postal",
              "line": [
                "123 Scenic Road"
              ],
              "state": "CT",
              "city": "Bridgeport",
              "country": "USA",
              "postalCode": "65478",
              "text": "Wunderwerke, 123 Scenic Road, CT, Bridgeport, USA 65478"
            }
          }
        ]
      },
      "fullUrl": "urn:uuid:4f3e9af1-306b-4fad-bf04-7881400b266a"
    },
    {
      "resource": {
        "resourceType": "Organization",
        "id": "b69435a0-45c6-4d44-9fde-b354e17408d7",
        "meta": {
          "profile": [
            "http://hl7.org/fhir/us/pq-cmc-fda/StructureDefinition/cmc-organization"
          ]
        },
        "identifier": [
          {
            "system": "urn:oid:1.3.6.1.4.1.519.1",
            "value": "143265222",
            "type": {
              "coding": [
                {
                  "code": "C134003",
                  "system": "http://ncicb.nci.nih.gov/xml/owl/EVS/Thesaurus.owl",
                  "display": "DUNS"
                }
              ]
            }
          }
        ],
        "name": "Large Life",
        "contact": [
          {
            "address": {
              "type": "postal",
              "line": [
                "123 Broad Way"
              ],
              "state": "NY",
              "city": "New York",
              "country": "USA",
              "postalCode": "10020",
              "text": "123 Broad Way, New York, NY, United States"
            }
          }
        ]
      },
      "fullUrl": "urn:uuid:b69435a0-45c6-4d44-9fde-b354e17408d7"
    },
    {
      "resource": {
        "resourceType": "MedicinalProductDefinition",
        "id": "f0f3ff35-5cfa-6617-b8f1-b8167957f53c",
        "meta": {
          "profile": [
            "http://hl7.org/fhir/us/pq-cmc-fda/StructureDefinition/pqcmc-batch-formula-product"
          ]
        },
        "name": [
          {
            "type": {
              "coding": [
                {
                  "code": "C96971",
                  "system": "http://ncicb.nci.nih.gov/xml/owl/EVS/Thesaurus.owl",
                  "display": "Nonproprietary Name"
                }
              ]
            },
            "part": [
              {
                "type": {
                  "coding": [
                    {
                      "code": "SCI",
                      "system": "http://terminology.hl7.org/CodeSystem/v3-EntityNamePartQualifierR2"
                    }
                  ]
                },
                "part": "ASPIRIN"
              },
              {
                "type": {
                  "coding": [
                    {
                      "code": "STR",
                      "system": "http://terminology.hl7.org/CodeSystem/v3-EntityNamePartQualifierR2"
                    }
                  ],
                  "text": "ASPIRIN"
                },
                "part": "200mg"
              },
              {
                "type": {
                  "coding": [
                    {
                      "code": "SCI",
                      "system": "http://terminology.hl7.org/CodeSystem/v3-EntityNamePartQualifierR2"
                    }
                  ]
                },
                "part": "ACETAMINOPHEN"
              },
              {
                "type": {
                  "coding": [
                    {
                      "code": "STR",
                      "system": "http://terminology.hl7.org/CodeSystem/v3-EntityNamePartQualifierR2"
                    }
                  ],
                  "text": "ACETAMINOPHEN"
                },
                "part": "300mg"
              }
            ],
            "productName": "ASPIRIN 200mg, ACETAMINOPHEN 300mg"
          }
        ],
        "identifier": [
          {
            "value": "ASPIRIN-ACETAMINOPHEN-Identification"
          }
        ],
        "combinedPharmaceuticalDoseForm": {
          "coding": [
            {
              "code": "C42964",
              "system": "http://ncicb.nci.nih.gov/xml/owl/EVS/Thesaurus.owl",
              "display": "TABLET, MULTILAYER"
            }
          ]
        },
        "route": [
          {
            "coding": [
              {
                "code": "C38288",
                "system": "http://ncicb.nci.nih.gov/xml/owl/EVS/Thesaurus.owl",
                "display": "ORAL"
              }
            ]
          }
        ],
        "comprisedOf": [
          {
            "reference": "urn:uuid:8a3e11d9-4323-43c4-be00-8f0ea1837070"
          }
        ]
      },
      "fullUrl": "urn:uuid:f0f3ff35-5cfa-6617-b8f1-b8167957f53c"
    },
    {
      "resource": {
        "resourceType": "ManufacturedItemDefinition",
        "id": "8a3e11d9-4323-43c4-be00-8f0ea1837070",
        "meta": {
          "profile": [
            "http://hl7.org/fhir/us/pq-cmc-fda/StructureDefinition/pqcmc-product-batch-formula"
          ]
        },
        "property": [
          {
            "type": {
              "text": "Batch Quantity"
            },
            "valueQuantity": {
              "value": 2000,
              "code": "{tbl}",
              "system": "http://unitsofmeasure.org",
              "unit": "tablets"
            }
          },
          {
            "type": {
              "text": "Batch Utilization"
            },
            "valueCodeableConcept": {
              "coding": [
                {
                  "code": "C133991",
                  "system": "http://ncicb.nci.nih.gov/xml/owl/EVS/Thesaurus.owl",
                  "display": "Development"
                }
              ]
            }
          },
          {
            "type": {
              "text": "Batch Formula Additional Information"
            },
            "valueMarkdown": "Makes 2000 tablets equivalent to 2.402 kilograms, accounting for losses from evaporation"
          }
        ],
        "component": [
          {
            "property": [
              {
                "type": {
                  "text": "Product Part Identifier"
                },
                "valueCodeableConcept": {
                  "text": "Purple Layer"
                }
              }
            ],
            "constituent": [
              {
                "amount": [
                  {
                    "value": 400,
                    "code": "g",
                    "system": "http://unitsofmeasure.org",
                    "unit": "gram"
                  },
                  {
                    "value": 43.1,
                    "code": "%",
                    "system": "http://unitsofmeasure.org",
                    "unit": "percent"
                  }
                ],
                "hasIngredient": [
                  {
                    "reference": {
                      "reference": "urn:uuid:d4713a90-38d1-49e5-a977-78c63e518562"
                    }
                  }
                ],
                "location": [
                  {
                    "coding": [
                      {
                        "code": "C203881",
                        "system": "http://ncicb.nci.nih.gov/xml/owl/EVS/Thesaurus.owl",
                        "display": "Active core/granulate"
                      }
                    ],
                    "text": "Purple Layer"
                  }
                ]
              },
              {
                "amount": [
                  {
                    "value": 524.01,
                    "code": "g",
                    "system": "http://unitsofmeasure.org",
                    "unit": "gram"
                  },
                  {
                    "value": 56.59,
                    "code": "%",
                    "system": "http://unitsofmeasure.org",
                    "unit": "percent"
                  }
                ],
                "hasIngredient": [
                  {
                    "reference": {
                      "reference": "urn:uuid:9973ba9a-b257-425a-8fb9-6dcfe379ca08"
                    }
                  }
                ],
                "location": [
                  {
                    "coding": [
                      {
                        "code": "C203883",
                        "system": "http://ncicb.nci.nih.gov/xml/owl/EVS/Thesaurus.owl",
                        "display": "Intragranular"
                      }
                    ],
                    "text": "Purple Layer"
                  }
                ]
              },
              {
                "amount": [
                  {
                    "value": 203.71,
                    "code": "g",
                    "system": "http://unitsofmeasure.org",
                    "unit": "gram"
                  },
                  {
                    "value": 22,
                    "code": "%",
                    "system": "http://unitsofmeasure.org",
                    "unit": "percent"
                  }
                ],
                "hasIngredient": [
                  {
                    "reference": {
                      "reference": "urn:uuid:4e394a0c-4b25-492e-aac7-0faf121ffc4f"
                    }
                  }
                ],
                "location": [
                  {
                    "coding": [
                      {
                        "code": "C203882",
                        "system": "http://ncicb.nci.nih.gov/xml/owl/EVS/Thesaurus.owl",
                        "display": "Extragranular"
                      }
                    ],
                    "text": "Purple Layer"
                  }
                ]
              },
              {
                "extension": [
                  {
                    "url": "http://hl7.org/fhir/us/pq-cmc-fda/StructureDefinition/pq-overage-extension",
                    "extension": [
                      {
                        "url": "proportionDecimal",
                        "valueDecimal": 0.02
                      },
                      {
                        "url": "justification",
                        "valueMarkdown": "Evaporation"
                      }
                    ]
                  }
                ],
                "amount": [
                  {
                    "value": 311.68,
                    "code": "g",
                    "system": "http://unitsofmeasure.org",
                    "unit": "gram"
                  },
                  {
                    "value": 33,
                    "code": "%",
                    "system": "http://unitsofmeasure.org",
                    "unit": "percent"
                  }
                ],
                "hasIngredient": [
                  {
                    "reference": {
                      "reference": "urn:uuid:95648837-ec81-42d9-970c-eac390f2f604"
                    }
                  }
                ],
                "location": [
                  {
                    "coding": [
                      {
                        "code": "C203882",
                        "system": "http://ncicb.nci.nih.gov/xml/owl/EVS/Thesaurus.owl",
                        "display": "Extragranular"
                      }
                    ],
                    "text": "Purple Layer"
                  }
                ]
              }
            ],
            "type": {
              "coding": [
                {
                  "code": "C66831",
                  "system": "http://ncicb.nci.nih.gov/xml/owl/EVS/Thesaurus.owl",
                  "display": "Layer"
                }
              ]
            },
            "amount": [
              {
                "value": 925.97,
                "code": "g",
                "system": "http://unitsofmeasure.org",
                "unit": "gram"
              },
              {
                "value": 38.55,
                "code": "%",
                "system": "http://unitsofmeasure.org",
                "unit": "percent"
              }
            ]
          },
          {
            "property": [
              {
                "type": {
                  "text": "Product Part Identifier"
                },
                "valueCodeableConcept": {
                  "text": "Example1Drug_LayerB"
                }
              }
            ],
            "type": {
              "coding": [
                {
                  "code": "C66831",
                  "system": "http://ncicb.nci.nih.gov/xml/owl/EVS/Thesaurus.owl",
                  "display": "Layer"
                }
              ]
            },
            "amount": [
              {
                "value": 1476.03,
                "code": "g",
                "system": "http://unitsofmeasure.org",
                "unit": "gram"
              },
              {
                "value": 61.45,
                "code": "%",
                "system": "http://unitsofmeasure.org",
                "unit": "percent"
              }
            ],
            "constituent": [
              {
                "amount": [
                  {
                    "value": 600.01,
                    "code": "g",
                    "system": "http://unitsofmeasure.org",
                    "unit": "gram"
                  },
                  {
                    "value": 40.65,
                    "code": "%",
                    "system": "http://unitsofmeasure.org",
                    "unit": "percent"
                  }
                ],
                "hasIngredient": [
                  {
                    "reference": {
                      "reference": "urn:uuid:fbd464cc-2511-4a3a-b058-3cec4fffd14f"
                    }
                  }
                ],
                "location": [
                  {
                    "coding": [
                      {
                        "code": "C203881",
                        "system": "http://ncicb.nci.nih.gov/xml/owl/EVS/Thesaurus.owl",
                        "display": "Active core/granulate"
                      }
                    ],
                    "text": "Example1Drug_LayerB"
                  }
                ]
              },
              {
                "amount": [
                  {
                    "value": 876.02,
                    "code": "g",
                    "system": "http://unitsofmeasure.org",
                    "unit": "gram"
                  },
                  {
                    "value": 59.35,
                    "code": "%",
                    "system": "http://unitsofmeasure.org",
                    "unit": "percent"
                  }
                ],
                "hasIngredient": [
                  {
                    "reference": {
                      "reference": "urn:uuid:9973ba9a-b257-425a-8fb9-6dcfe379ca08"
                    }
                  }
                ],
                "location": [
                  {
                    "coding": [
                      {
                        "code": "C203883",
                        "system": "http://ncicb.nci.nih.gov/xml/owl/EVS/Thesaurus.owl",
                        "display": "Intragranular"
                      }
                    ],
                    "text": "Example1Drug_LayerB"
                  }
                ]
              },
              {
                "amount": [
                  {
                    "value": 369.01,
                    "code": "g",
                    "system": "http://unitsofmeasure.org",
                    "unit": "gram"
                  },
                  {
                    "value": 25,
                    "code": "%",
                    "system": "http://unitsofmeasure.org",
                    "unit": "percent"
                  }
                ],
                "hasIngredient": [
                  {
                    "reference": {
                      "reference": "urn:uuid:95648837-ec81-42d9-970c-eac390f2f604"
                    }
                  }
                ],
                "location": [
                  {
                    "coding": [
                      {
                        "code": "C203882",
                        "system": "http://ncicb.nci.nih.gov/xml/owl/EVS/Thesaurus.owl",
                        "display": "Extragranular"
                      }
                    ],
                    "text": "Example1Drug_LayerB"
                  }
                ]
              }
            ]
          }
        ],
        "identifier": [
          {
            "value": "ASPIRIN-ACETAMINOPHEN"
          }
        ],
        "status": "active",
        "name": "ASPIRIN 200mg, ACETAMINOPHEN 300mg 2000 tablets",
        "manufacturedDoseForm": {
          "coding": [
            {
              "code": "C154605",
              "system": "http://ncicb.nci.nih.gov/xml/owl/EVS/Thesaurus.owl",
              "display": "Tablet"
            }
          ]
        },
        "manufacturer": [
          {
            "reference": "urn:uuid:b69435a0-45c6-4d44-9fde-b354e17408d7"
          }
        ]
      },
      "fullUrl": "urn:uuid:8a3e11d9-4323-43c4-be00-8f0ea1837070"
    },
    {
      "resource": {
        "resourceType": "Ingredient",
        "id": "d4713a90-38d1-49e5-a977-78c63e518562",
        "meta": {
          "profile": [
            "http://hl7.org/fhir/us/pq-cmc-fda/StructureDefinition/pqcmc-dp-ingredient"
          ]
        },
        "identifier": {
          "value": "Asprin - Ingredient"
        },
        "status": "active",
        "role": {
          "coding": [
            {
              "code": "C82533",
              "system": "http://ncicb.nci.nih.gov/xml/owl/EVS/Thesaurus.owl",
              "display": "Active Ingredient"
            }
          ]
        },
        "substance": {
          "code": {
            "reference": {
              "reference": "urn:uuid:cbb54715-3928-4e3f-9abe-32914f694957"
            }
          },
          "strength": [
            {
              "concentrationQuantity": {
                "value": 400,
                "code": "g",
                "system": "http://unitsofmeasure.org",
                "unit": "gram"
              }
            },
            {
              "concentrationQuantity": {
                "value": 10.4,
                "code": "%",
                "system": "http://unitsofmeasure.org",
                "unit": "percent"
              }
            }
          ]
        }
      },
      "fullUrl": "urn:uuid:d4713a90-38d1-49e5-a977-78c63e518562"
    },
    {
      "resource": {
        "resourceType": "Ingredient",
        "id": "fbd464cc-2511-4a3a-b058-3cec4fffd14f",
        "meta": {
          "profile": [
            "http://hl7.org/fhir/us/pq-cmc-fda/StructureDefinition/pqcmc-dp-ingredient"
          ]
        },
        "identifier": {
          "value": "AcetaminophenIngredient"
        },
        "status": "active",
        "role": {
          "coding": [
            {
              "code": "C82533",
              "system": "http://ncicb.nci.nih.gov/xml/owl/EVS/Thesaurus.owl",
              "display": "Active Ingredient"
            }
          ]
        },
        "substance": {
          "code": {
            "reference": {
              "reference": "urn:uuid:ca1ff85f-3f05-46be-8cc4-30b076d88c13"
            }
          },
          "strength": [
            {
              "concentrationQuantity": {
                "value": 600,
                "code": "g",
                "system": "http://unitsofmeasure.org",
                "unit": "gram"
              }
            },
            {
              "concentrationQuantity": {
                "value": 25,
                "code": "%",
                "system": "http://unitsofmeasure.org",
                "unit": "percent"
              }
            }
          ]
        }
      },
      "fullUrl": "urn:uuid:fbd464cc-2511-4a3a-b058-3cec4fffd14f"
    },
    {
      "resource": {
        "resourceType": "Ingredient",
        "id": "9973ba9a-b257-425a-8fb9-6dcfe379ca08",
        "meta": {
          "profile": [
            "http://hl7.org/fhir/us/pq-cmc-fda/StructureDefinition/pqcmc-dp-ingredient"
          ]
        },
        "identifier": {
          "value": "MaizeStarchIngredient"
        },
        "status": "active",
        "role": {
          "coding": [
            {
              "code": "C42637",
              "system": "http://ncicb.nci.nih.gov/xml/owl/EVS/Thesaurus.owl",
              "display": "Inactive Ingredient"
            }
          ]
        },
        "substance": {
          "code": {
            "reference": {
              "reference": "urn:uuid:99f4a24f-880f-45f1-8364-8e4e03977b2e"
            }
          },
          "strength": [
            {
              "concentrationQuantity": {
                "value": 1400.03,
                "code": "g",
                "system": "http://unitsofmeasure.org",
                "unit": "gram"
              }
            },
            {
              "concentrationQuantity": {
                "value": 58.28,
                "code": "%",
                "system": "http://unitsofmeasure.org",
                "unit": "percent"
              }
            }
          ]
        }
      },
      "fullUrl": "urn:uuid:9973ba9a-b257-425a-8fb9-6dcfe379ca08"
    },
    {
      "resource": {
        "resourceType": "Ingredient",
        "id": "4e394a0c-4b25-492e-aac7-0faf121ffc4f",
        "meta": {
          "profile": [
            "http://hl7.org/fhir/us/pq-cmc-fda/StructureDefinition/pqcmc-dp-ingredient"
          ]
        },
        "identifier": {
          "value": "GrapeskinIngredient"
        },
        "status": "active",
        "role": {
          "coding": [
            {
              "code": "C42637",
              "system": "http://ncicb.nci.nih.gov/xml/owl/EVS/Thesaurus.owl",
              "display": "Inactive Ingredient"
            }
          ]
        },
        "substance": {
          "code": {
            "reference": {
              "reference": "urn:uuid:a4624559-6c4f-4e90-996d-bc3bf2f5a3f4"
            }
          },
          "strength": [
            {
              "concentrationQuantity": {
                "value": 203.71,
                "code": "g",
                "system": "http://unitsofmeasure.org",
                "unit": "gram"
              }
            },
            {
              "concentrationQuantity": {
                "value": 8.48,
                "code": "%",
                "system": "http://unitsofmeasure.org",
                "unit": "percent"
              }
            }
          ]
        }
      },
      "fullUrl": "urn:uuid:4e394a0c-4b25-492e-aac7-0faf121ffc4f"
    },
    {
      "resource": {
        "resourceType": "Ingredient",
        "id": "95648837-ec81-42d9-970c-eac390f2f604",
        "meta": {
          "profile": [
            "http://hl7.org/fhir/us/pq-cmc-fda/StructureDefinition/pqcmc-dp-ingredient"
          ]
        },
        "identifier": {
          "value": "WaterBFIngredient"
        },
        "status": "active",
        "role": {
          "coding": [
            {
              "code": "C42637",
              "system": "http://ncicb.nci.nih.gov/xml/owl/EVS/Thesaurus.owl",
              "display": "Inactive Ingredient"
            }
          ]
        },
        "substance": {
          "code": {
            "reference": {
              "reference": "urn:uuid:254742fb-7b5b-49f5-b4af-e0d14d81f2f6"
            }
          },
          "strength": [
            {
              "concentrationQuantity": {
                "value": 50.75,
                "code": "kg",
                "system": "http://unitsofmeasure.org",
                "unit": "kilogram"
              }
            },
            {
              "concentrationQuantity": {
                "value": 95.3572,
                "code": "%",
                "system": "http://unitsofmeasure.org",
                "unit": "percent"
              }
            }
          ]
        }
      },
      "fullUrl": "urn:uuid:95648837-ec81-42d9-970c-eac390f2f604"
    },
    {
      "resource": {
        "resourceType": "SubstanceDefinition",
        "id": "cbb54715-3928-4e3f-9abe-32914f694957",
        "meta": {
          "profile": [
            "http://hl7.org/fhir/us/pq-cmc-fda/StructureDefinition/pqcmc-routine-drug-substance"
          ]
        },
        "name": [
          {
            "type": {
              "coding": [
                {
                  "code": "C203355",
                  "system": "http://ncicb.nci.nih.gov/xml/owl/EVS/Thesaurus.owl",
                  "display": "GSRS Preferred Term"
                }
              ]
            },
            "name": "ASPIRIN",
            "preferred": true
          }
        ],
        "classification": [
          {
            "coding": [
              {
                "code": "C48807",
                "system": "http://ncicb.nci.nih.gov/xml/owl/EVS/Thesaurus.owl",
                "display": "Chemical"
              }
            ]
          }
        ],
        "grade": [
          {
            "coding": [
              {
                "code": "C134006",
                "system": "http://ncicb.nci.nih.gov/xml/owl/EVS/Thesaurus.owl",
                "display": "USP-NF"
              }
            ]
          }
        ],
        "manufacturer": [
          {
            "reference": "urn:uuid:e165f057-5eed-4e64-8328-4438fc88fb1b"
          }
        ],
        "code": [
          {
            "code": {
              "coding": [
                {
                  "code": "R16CO5Y76E",
                  "system": "http://fdasis.nlm.nih.gov"
                }
              ]
            }
          }
        ]
      },
      "fullUrl": "urn:uuid:cbb54715-3928-4e3f-9abe-32914f694957"
    },
    {
      "resource": {
        "resourceType": "SubstanceDefinition",
        "id": "ca1ff85f-3f05-46be-8cc4-30b076d88c13",
        "meta": {
          "profile": [
            "http://hl7.org/fhir/us/pq-cmc-fda/StructureDefinition/pqcmc-routine-drug-substance"
          ]
        },
        "name": [
          {
            "type": {
              "coding": [
                {
                  "code": "C203355",
                  "system": "http://ncicb.nci.nih.gov/xml/owl/EVS/Thesaurus.owl",
                  "display": "GSRS Preferred Term"
                }
              ]
            },
            "name": "ACETAMINOPHEN",
            "preferred": true
          }
        ],
        "classification": [
          {
            "coding": [
              {
                "code": "C48807",
                "system": "http://ncicb.nci.nih.gov/xml/owl/EVS/Thesaurus.owl",
                "display": "Chemical"
              }
            ]
          }
        ],
        "grade": [
          {
            "coding": [
              {
                "code": "C134006",
                "system": "http://ncicb.nci.nih.gov/xml/owl/EVS/Thesaurus.owl",
                "display": "USP-NF"
              }
            ]
          }
        ],
        "manufacturer": [
          {
            "reference": "urn:uuid:4b565cf3-5353-48af-8cd6-5ccf4e9fd579"
          }
        ],
        "code": [
          {
            "code": {
              "coding": [
                {
                  "code": "362O9ITL9D",
                  "system": "http://fdasis.nlm.nih.gov"
                }
              ]
            }
          }
        ]
      },
      "fullUrl": "urn:uuid:ca1ff85f-3f05-46be-8cc4-30b076d88c13"
    },
    {
      "resource": {
        "resourceType": "SubstanceDefinition",
        "id": "99f4a24f-880f-45f1-8364-8e4e03977b2e",
        "meta": {
          "profile": [
            "http://hl7.org/fhir/us/pq-cmc-fda/StructureDefinition/pqcmc-excipient"
          ]
        },
        "name": [
          {
            "type": {
              "coding": [
                {
                  "code": "C203355",
                  "system": "http://ncicb.nci.nih.gov/xml/owl/EVS/Thesaurus.owl",
                  "display": "GSRS Preferred Term"
                }
              ]
            },
            "name": "STARCH, CORN",
            "preferred": true
          }
        ],
        "classification": [
          {
            "coding": [
              {
                "code": "C45305",
                "system": "http://ncicb.nci.nih.gov/xml/owl/EVS/Thesaurus.owl",
                "display": "Mixture"
              }
            ]
          }
        ],
        "grade": [
          {
            "coding": [
              {
                "code": "C134009",
                "system": "http://ncicb.nci.nih.gov/xml/owl/EVS/Thesaurus.owl",
                "display": "Company Standard"
              }
            ]
          }
        ],
        "code": [
          {
            "code": {
              "coding": [
                {
                  "code": "O8232NY3SJ",
                  "system": "http://fdasis.nlm.nih.gov"
                }
              ]
            }
          }
        ],
        "sourceMaterial": {
          "type": {
            "coding": [
              {
                "code": "C48807",
                "system": "http://ncicb.nci.nih.gov/xml/owl/EVS/Thesaurus.owl",
                "display": "Chemical"
              }
            ]
          }
        }
      },
      "fullUrl": "urn:uuid:99f4a24f-880f-45f1-8364-8e4e03977b2e"
    },
    {
      "resource": {
        "resourceType": "SubstanceDefinition",
        "id": "a4624559-6c4f-4e90-996d-bc3bf2f5a3f4",
        "meta": {
          "profile": [
            "http://hl7.org/fhir/us/pq-cmc-fda/StructureDefinition/pqcmc-excipient"
          ]
        },
        "name": [
          {
            "type": {
              "coding": [
                {
                  "code": "C203355",
                  "system": "http://ncicb.nci.nih.gov/xml/owl/EVS/Thesaurus.owl",
                  "display": "GSRS Preferred Term"
                }
              ]
            },
            "name": "WINE GRAPE",
            "preferred": true
          }
        ],
        "classification": [
          {
            "coding": [
              {
                "code": "C45305",
                "system": "http://ncicb.nci.nih.gov/xml/owl/EVS/Thesaurus.owl",
                "display": "Mixture"
              }
            ]
          }
        ],
        "grade": [
          {
            "coding": [
              {
                "code": "C176793",
                "system": "http://ncicb.nci.nih.gov/xml/owl/EVS/Thesaurus.owl",
                "display": "BP"
              }
            ]
          }
        ],
        "code": [
          {
            "code": {
              "coding": [
                {
                  "code": "3GOV20705G",
                  "system": "http://fdasis.nlm.nih.gov"
                }
              ]
            }
          }
        ],
        "sourceMaterial": {
          "type": {
            "coding": [
              {
                "code": "C14258",
                "system": "http://ncicb.nci.nih.gov/xml/owl/EVS/Thesaurus.owl",
                "display": "Plant"
              }
            ]
          }
        }
      },
      "fullUrl": "urn:uuid:a4624559-6c4f-4e90-996d-bc3bf2f5a3f4"
    },
    {
      "resource": {
        "resourceType": "SubstanceDefinition",
        "id": "254742fb-7b5b-49f5-b4af-e0d14d81f2f6",
        "meta": {
          "profile": [
            "http://hl7.org/fhir/us/pq-cmc-fda/StructureDefinition/pqcmc-excipient"
          ]
        },
        "name": [
          {
            "type": {
              "coding": [
                {
                  "code": "C203355",
                  "system": "http://ncicb.nci.nih.gov/xml/owl/EVS/Thesaurus.owl",
                  "display": "GSRS Preferred Term"
                }
              ]
            },
            "name": "WATER",
            "preferred": true
          }
        ],
        "classification": [
          {
            "coding": [
              {
                "code": "C48807",
                "system": "http://ncicb.nci.nih.gov/xml/owl/EVS/Thesaurus.owl",
                "display": "Chemical"
              }
            ]
          }
        ],
        "grade": [
          {
            "coding": [
              {
                "code": "C134006",
                "system": "http://ncicb.nci.nih.gov/xml/owl/EVS/Thesaurus.owl",
                "display": "USP-NF"
              }
            ]
          }
        ],
        "code": [
          {
            "code": {
              "coding": [
                {
                  "code": "059QF0KO0R",
                  "system": "http://fdasis.nlm.nih.gov"
                }
              ]
            }
          }
        ],
        "sourceMaterial": {
          "type": {
            "coding": [
              {
                "code": "C48807",
                "system": "http://ncicb.nci.nih.gov/xml/owl/EVS/Thesaurus.owl",
                "display": "Chemical"
              }
            ]
          }
        }
      },
      "fullUrl": "urn:uuid:254742fb-7b5b-49f5-b4af-e0d14d81f2f6"
    },
    {
      "resource": {
        "resourceType": "Organization",
        "id": "4b565cf3-5353-48af-8cd6-5ccf4e9fd579",
        "meta": {
          "profile": [
            "http://hl7.org/fhir/us/pq-cmc-fda/StructureDefinition/cmc-organization"
          ]
        },
        "identifier": [
          {
            "system": "urn:oid:1.3.6.1.4.1.519.1",
            "type": {
              "coding": [
                {
                  "code": "C134003",
                  "system": "http://ncicb.nci.nih.gov/xml/owl/EVS/Thesaurus.owl",
                  "display": "DUNS"
                }
              ]
            },
            "value": "783452221"
          },
          {
            "system": "urn:oid:2.16.840.1.113883.4.82",
            "type": {
              "coding": [
                {
                  "code": "C134004",
                  "system": "http://ncicb.nci.nih.gov/xml/owl/EVS/Thesaurus.owl",
                  "display": "FEI"
                }
              ]
            },
            "value": "6913973"
          }
        ],
        "name": "Manufacturing Site (J. Jones Research)",
        "contact": [
          {
            "address": {
              "type": "postal",
              "line": [
                "444 Grant Street"
              ],
              "city": "Bedford",
              "state": "NY",
              "country": "USA",
              "postalCode": "15600",
              "text": "Manufacturing Site (J. Jones Research), 444 Grant Street, Bedford, NY, United States"
            }
          }
        ]
      },
      "fullUrl": "urn:uuid:4b565cf3-5353-48af-8cd6-5ccf4e9fd579"
    },
    {
      "resource": {
        "resourceType": "Organization",
        "id": "e165f057-5eed-4e64-8328-4438fc88fb1b",
        "meta": {
          "profile": [
            "http://hl7.org/fhir/us/pq-cmc-fda/StructureDefinition/cmc-organization"
          ]
        },
        "identifier": [
          {
            "system": "urn:oid:1.3.6.1.4.1.519.1",
            "value": "143265222",
            "type": {
              "coding": [
                {
                  "code": "C134003",
                  "system": "http://ncicb.nci.nih.gov/xml/owl/EVS/Thesaurus.owl",
                  "display": "DUNS"
                }
              ]
            }
          }
        ],
        "name": "Vandechemie",
        "contact": [
          {
            "address": {
              "type": "postal",
              "text": "Vandechemie, Ruzettelaan 39234, Blankenberge, 8370, Belgium",
              "line": [
                "Ruzettelaan 39234"
              ],
              "city": "Blankenberge",
              "postalCode": "8370",
              "country": "BEL"
            }
          }
        ]
      },
      "fullUrl": "urn:uuid:e165f057-5eed-4e64-8328-4438fc88fb1b"
    }
  ]
}
