{
  "resourceType": "Bundle",
  "id": "CharacterisationImpuritiesProductBundle",
  "meta": {
    "profile": [
      "http://hl7.org/fhir/us/pq-cmc-fda/StructureDefinition/cmc-ectd-document-32p55"
    ]
  },
  "type": "document",
  "identifier": {
    "system": "urn:ietf:rfc:3986",
    "value": "urn:uuid:2b738e27-de1f-4f63-8d91-c8860089d2a1"
  },
  "timestamp": "2024-04-24T01:12:07.108Z",
  "entry": [
    {
      "resource": {
        "resourceType": "Composition",
        "id": "8a07e353-9cf6-4f27-8a30-2c2d4f439847",
        "meta": {
          "profile": [
            "http://hl7.org/fhir/us/pq-cmc-fda/StructureDefinition/ectd-composition-32p55"
          ]
        },
        "status": "final",
        "type": {
          "coding": [
            {
              "code": "ich_3.2.p.5.5",
              "system": "http://terminology.hl7.org/temporary-uri/codeSystem/ICH-context-of-use",
              "display": "Characterisation of Impurities"
            }
          ]
        },
        "section": [
          {
            "code": {
              "coding": [
                {
                  "code": "ich_3.2.p.5.5",
                  "system": "http://terminology.hl7.org/temporary-uri/codeSystem/ICH-context-of-use",
                  "display": "Characterisation of Impurities"
                }
              ]
            },
            "title": "Impurities for TabletCoatedBeadsCoatedAll",
            "entry": [
              {
                "reference": "urn:uuid:ddd3abad-347c-4d2f-95f3-dd804e250502"
              }
            ]
          }
        ],
        "date": "2024-04-24T01:12:07.108Z",
        "author": [
          {
            "reference": "urn:uuid:98effc99-db2b-428d-89aa-0ce426e02788"
          }
        ],
        "title": "eCTD Product Characterisation of Impurities Composition for TabletCoatedBeadsCoatedAll"
      },
      "fullUrl": "urn:uuid:8a07e353-9cf6-4f27-8a30-2c2d4f439847"
    },
    {
      "resource": {
        "resourceType": "MedicinalProductDefinition",
        "id": "ddd3abad-347c-4d2f-95f3-dd804e250502",
        "meta": {
          "profile": [
            "http://hl7.org/fhir/us/pq-cmc-fda/StructureDefinition/pqcmc-drug-product-with-impurities"
          ]
        },
        "name": [
          {
            "type": {
              "coding": [
                {
                  "code": "C96971",
                  "system": "http://ncicb.nci.nih.gov/xml/owl/EVS/Thesaurus.owl",
                  "display": "Nonproprietary Name"
                }
              ],
              "text": "Non-Proprietary"
            },
            "part": [
              {
                "type": {
                  "coding": [
                    {
                      "code": "SCI",
                      "system": "http://terminology.hl7.org/CodeSystem/v3-EntityNamePartQualifierR2"
                    }
                  ]
                },
                "part": "LEVOTHYROXINE SODIUM ANHYDROUS"
              },
              {
                "type": {
                  "coding": [
                    {
                      "code": "STR",
                      "system": "http://terminology.hl7.org/CodeSystem/v3-EntityNamePartQualifierR2"
                    }
                  ],
                  "text": "LEVOTHYROXINE SODIUM ANHYDROUS"
                },
                "part": "125mg"
              }
            ],
            "productName": "LEVOTHYROXINE SODIUM ANHYDROUS 125mg"
          }
        ],
        "identifier": [
          {
            "value": "TabletCoatedBeadsCoatedAll"
          }
        ],
        "description": "A drug product composed of one type of bead with two coatings inside a coated tablet",
        "combinedPharmaceuticalDoseForm": {
          "coding": [
            {
              "code": "C42964",
              "system": "http://ncicb.nci.nih.gov/xml/owl/EVS/Thesaurus.owl",
              "display": "TABLET, MULTILAYER"
            }
          ]
        },
        "impurity": [
          {
            "reference": {
              "reference": "urn:uuid:58ae52aa-c81e-415a-8791-e67a3195290d"
            }
          },
          {
            "reference": {
              "reference": "urn:uuid:ffa30c0b-8031-436a-87f1-635b3bbe5989"
            }
          }
        ],
        "route": [
          {
            "coding": [
              {
                "code": "C38288",
                "system": "http://ncicb.nci.nih.gov/xml/owl/EVS/Thesaurus.owl",
                "display": "ORAL"
              }
            ]
          }
        ]
      },
      "fullUrl": "urn:uuid:ddd3abad-347c-4d2f-95f3-dd804e250502"
    },
    {
      "resource": {
        "resourceType": "Organization",
        "id": "98effc99-db2b-428d-89aa-0ce426e02788",
        "meta": {
          "profile": [
            "http://hl7.org/fhir/us/pq-cmc-fda/StructureDefinition/cmc-organization"
          ]
        },
        "identifier": [
          {
            "system": "urn:oid:1.3.6.1.4.1.519.1",
            "value": "143265222",
            "type": {
              "coding": [
                {
                  "code": "C134003",
                  "system": "http://ncicb.nci.nih.gov/xml/owl/EVS/Thesaurus.owl",
                  "display": "DUNS"
                }
              ]
            }
          }
        ],
        "name": "connectathon_Site",
        "contact": [
          {
            "address": {
              "type": "postal",
              "line": [
                "Restful Rd"
              ],
              "state": "CT",
              "city": "Danbury",
              "country": "USA",
              "postalCode": "06811",
              "text": "connectathon_Site, Restful Rd, Danbury, CT, USA"
            }
          }
        ]
      },
      "fullUrl": "urn:uuid:98effc99-db2b-428d-89aa-0ce426e02788"
    },
    {
      "resource": {
        "resourceType": "SubstanceDefinition",
        "id": "58ae52aa-c81e-415a-8791-e67a3195290d",
        "meta": {
          "profile": [
            "http://hl7.org/fhir/us/pq-cmc-fda/StructureDefinition/pqcmc-drug-product-substance-impurity"
          ]
        },
        "structure": {
          "representation": [
            {
              "type": {
                "coding": [
                  {
                    "code": "C45253",
                    "system": "http://ncicb.nci.nih.gov/xml/owl/EVS/Thesaurus.owl"
                  }
                ]
              },
              "format": {
                "coding": [
                  {
                    "code": "C54683",
                    "system": "http://ncicb.nci.nih.gov/xml/owl/EVS/Thesaurus.owl",
                    "display": "InChI File (small molecule)"
                  }
                ]
              },
              "representation": "YMWUJEATGCHHMB-UHFFFAOYSA-N"
            },
            {
              "type": {
                "coding": [
                  {
                    "code": "C45253",
                    "system": "http://ncicb.nci.nih.gov/xml/owl/EVS/Thesaurus.owl"
                  }
                ]
              },
              "format": {
                "coding": [
                  {
                    "code": "C54684",
                    "system": "http://ncicb.nci.nih.gov/xml/owl/EVS/Thesaurus.owl",
                    "display": "SMILES"
                  }
                ]
              },
              "representation": "ClCCl"
            }
          ],
          "technique": [
            {
              "text": "Leftover Solvent"
            }
          ]
        },
        "name": [
          {
            "type": {
              "coding": [
                {
                  "code": "C97054",
                  "system": "http://ncicb.nci.nih.gov/xml/owl/EVS/Thesaurus.owl",
                  "display": "Generic Name"
                }
              ]
            },
            "name": "DICHLOROMETHANE",
            "preferred": true
          }
        ],
        "identifier": [
          {
            "value": "DCM"
          }
        ],
        "classification": [
          {
            "coding": [
              {
                "code": "C176815",
                "system": "http://ncicb.nci.nih.gov/xml/owl/EVS/Thesaurus.owl",
                "display": "Residual Solvent"
              }
            ]
          }
        ],
        "code": [
          {
            "code": {
              "coding": [
                {
                  "code": "588X2YUY0A",
                  "system": "http://fdasis.nlm.nih.gov"
                }
              ]
            }
          }
        ]
      },
      "fullUrl": "urn:uuid:58ae52aa-c81e-415a-8791-e67a3195290d"
    },
    {
      "resource": {
        "resourceType": "SubstanceDefinition",
        "id": "ffa30c0b-8031-436a-87f1-635b3bbe5989",
        "meta": {
          "profile": [
            "http://hl7.org/fhir/us/pq-cmc-fda/StructureDefinition/pqcmc-drug-product-substance-impurity"
          ]
        },
        "structure": {
          "representation": [
            {
              "type": {
                "coding": [
                  {
                    "code": "C45253",
                    "system": "http://ncicb.nci.nih.gov/xml/owl/EVS/Thesaurus.owl"
                  }
                ]
              },
              "format": {
                "coding": [
                  {
                    "code": "C54683",
                    "system": "http://ncicb.nci.nih.gov/xml/owl/EVS/Thesaurus.owl",
                    "display": "InChI File (small molecule)"
                  }
                ]
              },
              "representation": "XZFUZCHOJLQYHV-UHFFFAOYSA-M"
            },
            {
              "type": {
                "coding": [
                  {
                    "code": "C45253",
                    "system": "http://ncicb.nci.nih.gov/xml/owl/EVS/Thesaurus.owl"
                  }
                ]
              },
              "format": {
                "coding": [
                  {
                    "code": "C54684",
                    "system": "http://ncicb.nci.nih.gov/xml/owl/EVS/Thesaurus.owl",
                    "display": "SMILES"
                  }
                ]
              },
              "representation": "[OH-].[Ca++].[Ca++].[Ca++].[Ca++].[Ca++].[O-]P([O-])([O-])=O.[O-]P([O-])([O-])=O.[O-]P([O-])([O-])=O"
            }
          ],
          "technique": [
            {
              "text": "formed from dicalcium phosphate degradation"
            }
          ]
        },
        "name": [
          {
            "type": {
              "coding": [
                {
                  "code": "C203355",
                  "system": "http://ncicb.nci.nih.gov/xml/owl/EVS/Thesaurus.owl",
                  "display": "GSRS Preferred Term"
                }
              ]
            },
            "name": "TRIBASIC CALCIUM PHOSPHATE",
            "preferred": true
          }
        ],
        "identifier": [
          {
            "value": "hydroxyApatite"
          }
        ],
        "classification": [
          {
            "coding": [
              {
                "code": "C176816",
                "system": "http://ncicb.nci.nih.gov/xml/owl/EVS/Thesaurus.owl",
                "display": "Degradation Product"
              }
            ]
          }
        ],
        "code": [
          {
            "code": {
              "coding": [
                {
                  "code": "91D9GV0Z28",
                  "system": "http://fdasis.nlm.nih.gov"
                }
              ]
            }
          }
        ]
      },
      "fullUrl": "urn:uuid:ffa30c0b-8031-436a-87f1-635b3bbe5989"
    }
  ]
}
