{
  "resourceType": "Bundle",
  "id": "SpecificationSubstanceBundle",
  "meta": {
    "profile": [
      "http://hl7.org/fhir/us/pq-cmc-fda/StructureDefinition/cmc-ectd-document-sp4151"
    ]
  },
  "type": "document",
  "identifier": {
    "system": "urn:ietf:rfc:3986",
    "value": "urn:uuid:3e9cc7a1-e157-4b46-980a-33a8e50dcf65"
  },
  "timestamp": "2023-12-15T22:36:51.299Z",
  "entry": [
    {
      "resource": {
        "resourceType": "Composition",
        "id": "55d92f43-e328-4011-bbcf-744e3afd954f",
        "meta": {
          "profile": [
            "http://hl7.org/fhir/us/pq-cmc-fda/StructureDefinition/ectd-composition-sp4151"
          ]
        },
        "status": "final",
        "identifier": [
          {
            "value": "ExampleSpecification2"
          }
        ],
        "type": {
          "coding": [
            {
              "code": "ich_3.2.s.4.1",
              "system": "http://terminology.hl7.org/temporary-uri/codeSystem/ICH-context-of-use",
              "display": "Specification"
            }
          ]
        },
        "author": [
          {
            "reference": "urn:uuid:4f3e9af1-306b-4fad-bf04-7881400b266a"
          }
        ],
        "date": "2023-12-15T22:36:51.299Z",
        "title": "Quality Specification for an API",
        "section": [
          {
            "title": "32S41",
            "entry": [
              {
                "reference": "urn:uuid:cc82a0ce-b72f-4d58-8ea0-6f323e2a9a93"
              }
            ]
          }
        ]
      },
      "fullUrl": "urn:uuid:55d92f43-e328-4011-bbcf-744e3afd954f"
    },
    {
      "resource": {
        "resourceType": "PlanDefinition",
        "id": "cc82a0ce-b72f-4d58-8ea0-6f323e2a9a93",
        "meta": {
          "profile": [
            "http://hl7.org/fhir/us/pq-cmc-fda/StructureDefinition/pqcmc-quality-specification"
          ]
        },
        "extension": [
          {
            "url": "http://hl7.org/fhir/us/pq-cmc-fda/StructureDefinition/pq-specification-status-extension",
            "valueCodeableConcept": {
              "coding": [
                {
                  "code": "C134010",
                  "system": "http://ncicb.nci.nih.gov/xml/owl/EVS/Thesaurus.owl",
                  "display": "Tentatively Approved"
                }
              ]
            }
          },
          {
            "url": "http://hl7.org/fhir/us/pq-cmc-fda/StructureDefinition/pq-additional-info-extension",
            "valueMarkdown": "This API is is currently characterized through a standard battery of physicochemical characterzation tests."
          }
        ],
        "type": {
          "coding": [
            {
              "code": "workflow-definition",
              "system": "http://terminology.hl7.org/CodeSystem/plan-definition-type",
              "display": "Workflow Definition"
            },
            {
              "code": "C134022",
              "system": "http://ncicb.nci.nih.gov/xml/owl/EVS/Thesaurus.owl",
              "display": "Drug Substance"
            }
          ]
        },
        "action": [
          {
            "reason": [
              {
                "extension": [
                  {
                    "url": "http://hl7.org/fhir/us/pq-cmc-fda/StructureDefinition/pq-hierarchical-level-extension",
                    "valuePositiveInt": 1
                  }
                ],
                "coding": [
                  {
                    "code": "C134256",
                    "system": "http://ncicb.nci.nih.gov/xml/owl/EVS/Thesaurus.owl",
                    "display": "Microbial Limits"
                  }
                ]
              }
            ],
            "documentation": [
              {
                "type": "documentation",
                "label": "USP <61>"
              }
            ],
            "id": "997a8ec6-eabf-41a3-b166-ddc3dfb35c27",
            "prefix": "Single Stage",
            "title": "Microbiological Examination of Nonsterile Products",
            "code": {
              "coding": [
                {
                  "code": "C96102",
                  "system": "http://ncicb.nci.nih.gov/xml/owl/EVS/Thesaurus.owl",
                  "display": "Compendial"
                }
              ],
              "text": "Visual"
            },
            "action": [
              {
                "linkId": "997a8ec6-eabf-41a3-b166-ddc3dfb35c27",
                "title": "Staphylococcus aureus",
                "goalId": [
                  "b304ed45-5295-4082-9827-f20e1ff0d1d3"
                ]
              },
              {
                "linkId": "997a8ec6-eabf-41a3-b166-ddc3dfb35c27",
                "title": "Pseudomonas aeruginosa",
                "goalId": [
                  "d4e38c52-30f6-4bb7-ab84-99439a7266ce"
                ]
              },
              {
                "linkId": "997a8ec6-eabf-41a3-b166-ddc3dfb35c27",
                "title": "Bacillus subtilis",
                "goalId": [
                  "2abf1f19-e1b1-42e4-b943-79f5fa1642fe"
                ]
              },
              {
                "linkId": "997a8ec6-eabf-41a3-b166-ddc3dfb35c27",
                "title": "Total Aerobic Microbial Count (TAMC)",
                "goalId": [
                  "c0ed4a79-8f40-4d26-8845-4cea166fb627"
                ]
              },
              {
                "linkId": "997a8ec6-eabf-41a3-b166-ddc3dfb35c27",
                "title": "Total Yeasts and Molds Count (TYMC)",
                "goalId": [
                  "442983b5-bbc3-4534-9f1b-5ae5e4c531c1"
                ]
              }
            ]
          }
        ],
        "identifier": [
          {
            "value": "ExampleSpecification2"
          }
        ],
        "version": "1.0",
        "title": "Quality Specification for an API",
        "status": "active",
        "subjectReference": {
          "reference": "urn:uuid:580c28ac-1a2c-49fa-9be3-de997da5edcf"
        },
        "date": "2022-12-08",
        "approvalDate": "2022-12-08",
        "goal": [
          {
            "id": "b304ed45-5295-4082-9827-f20e1ff0d1d3",
            "description": {
              "text": "Negative"
            },
            "addresses": [
              {
                "coding": [
                  {
                    "code": "C134029",
                    "system": "http://ncicb.nci.nih.gov/xml/owl/EVS/Thesaurus.owl",
                    "display": "Release"
                  }
                ]
              },
              {
                "coding": [
                  {
                    "code": "C134030",
                    "system": "http://ncicb.nci.nih.gov/xml/owl/EVS/Thesaurus.owl",
                    "display": "Stability"
                  }
                ]
              }
            ],
            "target": [
              {
                "detailString": "Negative"
              }
            ]
          },
          {
            "id": "d4e38c52-30f6-4bb7-ab84-99439a7266ce",
            "description": {
              "text": "Negative"
            },
            "addresses": [
              {
                "coding": [
                  {
                    "code": "C134029",
                    "system": "http://ncicb.nci.nih.gov/xml/owl/EVS/Thesaurus.owl",
                    "display": "Release"
                  }
                ]
              },
              {
                "coding": [
                  {
                    "code": "C134030",
                    "system": "http://ncicb.nci.nih.gov/xml/owl/EVS/Thesaurus.owl",
                    "display": "Stability"
                  }
                ]
              }
            ],
            "target": [
              {
                "detailString": "Negative"
              }
            ]
          },
          {
            "id": "2abf1f19-e1b1-42e4-b943-79f5fa1642fe",
            "description": {
              "text": "Negative"
            },
            "addresses": [
              {
                "coding": [
                  {
                    "code": "C134029",
                    "system": "http://ncicb.nci.nih.gov/xml/owl/EVS/Thesaurus.owl",
                    "display": "Release"
                  }
                ]
              },
              {
                "coding": [
                  {
                    "code": "C134030",
                    "system": "http://ncicb.nci.nih.gov/xml/owl/EVS/Thesaurus.owl",
                    "display": "Stability"
                  }
                ]
              }
            ],
            "target": [
              {
                "detailString": "Negative"
              }
            ]
          },
          {
            "id": "c0ed4a79-8f40-4d26-8845-4cea166fb627",
            "description": {
              "text": "NMT 10 colony-forming units"
            },
            "addresses": [
              {
                "coding": [
                  {
                    "code": "C134029",
                    "system": "http://ncicb.nci.nih.gov/xml/owl/EVS/Thesaurus.owl",
                    "display": "Release"
                  }
                ]
              },
              {
                "coding": [
                  {
                    "code": "C134030",
                    "system": "http://ncicb.nci.nih.gov/xml/owl/EVS/Thesaurus.owl",
                    "display": "Stability"
                  }
                ]
              }
            ],
            "target": [
              {
                "detailQuantity": {
                  "value": 10,
                  "code": "[CFU]",
                  "system": "http://unitsofmeasure.org",
                  "unit": "colony forming unit",
                  "comparator": "<="
                }
              }
            ]
          },
          {
            "id": "442983b5-bbc3-4534-9f1b-5ae5e4c531c1",
            "description": {
              "text": "NMT 100 colony-forming units"
            },
            "addresses": [
              {
                "coding": [
                  {
                    "code": "C134029",
                    "system": "http://ncicb.nci.nih.gov/xml/owl/EVS/Thesaurus.owl",
                    "display": "Release"
                  }
                ]
              },
              {
                "coding": [
                  {
                    "code": "C134030",
                    "system": "http://ncicb.nci.nih.gov/xml/owl/EVS/Thesaurus.owl",
                    "display": "Stability"
                  }
                ]
              }
            ],
            "target": [
              {
                "detailQuantity": {
                  "value": 100,
                  "code": "[CFU]",
                  "system": "http://unitsofmeasure.org",
                  "unit": "colony forming unit",
                  "comparator": "<="
                }
              }
            ]
          }
        ]
      },
      "fullUrl": "urn:uuid:cc82a0ce-b72f-4d58-8ea0-6f323e2a9a93"
    },
    {
      "resource": {
        "resourceType": "SubstanceDefinition",
        "id": "580c28ac-1a2c-49fa-9be3-de997da5edcf",
        "meta": {
          "profile": [
            "http://hl7.org/fhir/us/pq-cmc-fda/StructureDefinition/pqcmc-routine-drug-substance"
          ]
        },
        "code": [
          {
            "code": {
              "coding": [
                {
                  "system": "http://fdasis.nlm.nih.gov",
                  "code": "WK2XYI10QM"
                }
              ]
            }
          }
        ],
        "name": [
          {
            "type": {
              "coding": [
                {
                  "code": "C203355",
                  "system": "http://ncicb.nci.nih.gov/xml/owl/EVS/Thesaurus.owl",
                  "display": "GSRS Preferred Term"
                }
              ]
            },
            "name": "IBUPROFENPIRIN",
            "preferred": true
          }
        ],
        "identifier": [
          {
            "value": "P-Isobutylhydratropic Acid"
          }
        ],
        "classification": [
          {
            "coding": [
              {
                "code": "C48807",
                "system": "http://ncicb.nci.nih.gov/xml/owl/EVS/Thesaurus.owl",
                "display": "Chemical"
              }
            ]
          }
        ],
        "grade": [
          {
            "coding": [
              {
                "code": "C134006",
                "system": "http://ncicb.nci.nih.gov/xml/owl/EVS/Thesaurus.owl",
                "display": "USP-NF"
              }
            ]
          }
        ],
        "manufacturer": [
          {
            "reference": "urn:uuid:e99bddfa-c1b5-435b-bbe8-24816b4e23e5"
          }
        ],
        "supplier": [
          {
            "reference": "urn:uuid:d9e7c2f7-0f59-4645-bb6d-5a8dd2425049"
          }
        ]
      },
      "fullUrl": "urn:uuid:580c28ac-1a2c-49fa-9be3-de997da5edcf"
    },
    {
      "resource": {
        "resourceType": "Organization",
        "id": "4f3e9af1-306b-4fad-bf04-7881400b266a",
        "meta": {
          "profile": [
            "http://hl7.org/fhir/us/pq-cmc-fda/StructureDefinition/cmc-organization"
          ]
        },
        "identifier": [
          {
            "system": "urn:oid:1.3.6.1.4.1.519.1",
            "value": "143265222",
            "type": {
              "coding": [
                {
                  "code": "C134003",
                  "system": "http://ncicb.nci.nih.gov/xml/owl/EVS/Thesaurus.owl",
                  "display": "DUNS"
                }
              ]
            }
          }
        ],
        "name": "Wunderwerke",
        "contact": [
          {
            "address": {
              "type": "postal",
              "line": [
                "123 Scenic Road"
              ],
              "state": "CT",
              "city": "Bridgeport",
              "country": "USA",
              "postalCode": "65478",
              "text": "Wunderwerke, 123 Scenic Road, CT, Bridgeport, USA 65478"
            }
          }
        ]
      },
      "fullUrl": "urn:uuid:4f3e9af1-306b-4fad-bf04-7881400b266a"
    },
    {
      "resource": {
        "resourceType": "Organization",
        "id": "e99bddfa-c1b5-435b-bbe8-24816b4e23e5",
        "meta": {
          "profile": [
            "http://hl7.org/fhir/us/pq-cmc-fda/StructureDefinition/cmc-organization"
          ]
        },
        "identifier": [
          {
            "system": "urn:oid:1.3.6.1.4.1.519.1",
            "value": "143265222",
            "type": {
              "coding": [
                {
                  "code": "C134003",
                  "system": "http://ncicb.nci.nih.gov/xml/owl/EVS/Thesaurus.owl",
                  "display": "DUNS"
                }
              ]
            }
          },
          {
            "system": "urn:oid:2.16.840.1.113883.4.82",
            "type": {
              "coding": [
                {
                  "code": "C134004",
                  "system": "http://ncicb.nci.nih.gov/xml/owl/EVS/Thesaurus.owl",
                  "display": "FEI"
                }
              ]
            },
            "value": "6981397"
          }
        ],
        "name": "Vidinaid",
        "contact": [
          {
            "address": {
              "type": "postal",
              "line": [
                "100 Stillwater Avenue",
                "Building #2"
              ],
              "city": "Bangor",
              "country": "USA",
              "postalCode": "04401",
              "text": "Vidinaid, 100 Stillwater Avenue, Building #2, Bangor, ME, USA",
              "state": "ME"
            }
          }
        ]
      },
      "fullUrl": "urn:uuid:e99bddfa-c1b5-435b-bbe8-24816b4e23e5"
    },
    {
      "resource": {
        "resourceType": "Organization",
        "id": "d9e7c2f7-0f59-4645-bb6d-5a8dd2425049",
        "meta": {
          "profile": [
            "http://hl7.org/fhir/us/pq-cmc-fda/StructureDefinition/cmc-organization"
          ]
        },
        "identifier": [
          {
            "system": "urn:oid:1.3.6.1.4.1.519.1",
            "type": {
              "coding": [
                {
                  "code": "C134003",
                  "system": "http://ncicb.nci.nih.gov/xml/owl/EVS/Thesaurus.owl",
                  "display": "DUNS"
                }
              ]
            },
            "value": "173265332"
          }
        ],
        "name": "Mega Chem Supply",
        "contact": [
          {
            "address": {
              "type": "postal",
              "line": [
                "350 W Main Street"
              ],
              "state": "NY",
              "city": "Rochester",
              "country": "USA",
              "postalCode": "14608",
              "text": "Mega Chem Supply, 350 W Main Street, Rochester, NY, United States"
            }
          }
        ]
      },
      "fullUrl": "urn:uuid:d9e7c2f7-0f59-4645-bb6d-5a8dd2425049"
    }
  ]
}
