{
  "resourceType": "Bundle",
  "id": "BatchFormulaBundle",
  "meta": {
    "profile": [
      "http://hl7.org/fhir/us/pq-cmc-fda/StructureDefinition/cmc-ectd-document-32p32"
    ]
  },
  "type": "document",
  "identifier": {
    "system": "urn:ietf:rfc:3986",
    "value": "urn:uuid:a242b79e-b706-49d3-93ba-b4364ab2baa3"
  },
  "timestamp": "2024-07-01T12:34:56.789Z",
  "entry": [
    {
      "resource": {
        "resourceType": "Composition",
        "id": "0003c00b-bfc2-4775-8b1c-9f99d5cf1f39",
        "meta": {
          "profile": [
            "http://hl7.org/fhir/us/pq-cmc-fda/StructureDefinition/ectd-composition-32p32"
          ]
        },
        "status": "final",
        "type": {
          "coding": [
            {
              "code": "ich_3.2.p.3.2",
              "system": "http://terminology.hl7.org/temporary-uri/codeSystem/ICH-context-of-use",
              "display": "Batch Formula"
            }
          ]
        },
        "section": [
          {
            "code": {
              "coding": [
                {
                  "code": "ich_3.2.p.3.2",
                  "system": "http://terminology.hl7.org/temporary-uri/codeSystem/ICH-context-of-use",
                  "display": "Batch Formula"
                }
              ]
            },
            "title": "Batch Formula",
            "entry": [
              {
                "reference": "urn:uuid:d0d2df25-5cfa-4417-b8d1-b8147957f53c"
              }
            ]
          }
        ],
        "identifier": [
          {
            "value": "BatchFormulaComposition"
          }
        ],
        "author": [
          {
            "reference": "urn:uuid:4f3e9af1-306b-4fad-bf04-7881400b266a"
          }
        ],
        "date": "2024-07-01T12:34:56.789Z",
        "title": "Batch formula example"
      },
      "fullUrl": "urn:uuid:0003c00b-bfc2-4775-8b1c-9f99d5cf1f39"
    },
    {
      "resource": {
        "resourceType": "Organization",
        "id": "4f3e9af1-306b-4fad-bf04-7881400b266a",
        "meta": {
          "profile": [
            "http://hl7.org/fhir/us/pq-cmc-fda/StructureDefinition/cmc-organization"
          ]
        },
        "identifier": [
          {
            "system": "urn:oid:1.3.6.1.4.1.519.1",
            "value": "143265222",
            "type": {
              "coding": [
                {
                  "code": "C134003",
                  "system": "http://ncicb.nci.nih.gov/xml/owl/EVS/Thesaurus.owl",
                  "display": "DUNS"
                }
              ]
            }
          }
        ],
        "name": "Wunderwerke",
        "contact": [
          {
            "address": {
              "type": "postal",
              "line": [
                "123 Scenic Road"
              ],
              "state": "CT",
              "city": "Bridgeport",
              "country": "USA",
              "postalCode": "65478",
              "text": "Wunderwerke, 123 Scenic Road, CT, Bridgeport, USA 65478"
            }
          }
        ]
      },
      "fullUrl": "urn:uuid:4f3e9af1-306b-4fad-bf04-7881400b266a"
    },
    {
      "resource": {
        "resourceType": "Organization",
        "id": "e875ef93-a730-4c44-bead-53663ae7f501",
        "meta": {
          "profile": [
            "http://hl7.org/fhir/us/pq-cmc-fda/StructureDefinition/cmc-organization"
          ]
        },
        "identifier": [
          {
            "system": "urn:oid:1.3.6.1.4.1.519.1",
            "value": "147275722",
            "type": {
              "coding": [
                {
                  "code": "C134003",
                  "system": "http://ncicb.nci.nih.gov/xml/owl/EVS/Thesaurus.owl",
                  "display": "DUNS"
                }
              ]
            }
          },
          {
            "system": "urn:oid:2.16.840.1.113883.4.82",
            "type": {
              "coding": [
                {
                  "code": "C134004",
                  "system": "http://ncicb.nci.nih.gov/xml/owl/EVS/Thesaurus.owl",
                  "display": "FEI"
                }
              ]
            },
            "value": "6981397"
          }
        ],
        "name": "East-West Manufacturing",
        "contact": [
          {
            "address": {
              "type": "postal",
              "line": [
                "100 Stillwater Avenue",
                "Building #2"
              ],
              "state": "ME",
              "city": "Bangor",
              "country": "USA",
              "postalCode": "04401",
              "text": "East-West Manufacturing, 100 Stillwater Avenue, Building #2, Bangor, ME, United States"
            }
          }
        ]
      },
      "fullUrl": "urn:uuid:e875ef93-a730-4c44-bead-53663ae7f501"
    },
    {
      "resource": {
        "resourceType": "MedicinalProductDefinition",
        "id": "d0d2df25-5cfa-4417-b8d1-b8147957f53c",
        "meta": {
          "profile": [
            "http://hl7.org/fhir/us/pq-cmc-fda/StructureDefinition/pqcmc-batch-formula-product"
          ]
        },
        "name": [
          {
            "type": {
              "coding": [
                {
                  "code": "C96971",
                  "system": "http://ncicb.nci.nih.gov/xml/owl/EVS/Thesaurus.owl",
                  "display": "Nonproprietary Name"
                }
              ]
            },
            "part": [
              {
                "type": {
                  "coding": [
                    {
                      "code": "SCI",
                      "system": "http://terminology.hl7.org/CodeSystem/v3-EntityNamePartQualifierR2"
                    }
                  ]
                },
                "part": "ATOMOXETINE HYDROCHLORIDE"
              },
              {
                "type": {
                  "coding": [
                    {
                      "code": "STR",
                      "system": "http://terminology.hl7.org/CodeSystem/v3-EntityNamePartQualifierR2"
                    }
                  ],
                  "text": "ATOMOXETINE HYDROCHLORIDE"
                },
                "part": "1mg"
              }
            ],
            "productName": "ATOMOXETINE HYDROCHLORIDE 1mg"
          }
        ],
        "identifier": [
          {
            "value": "Oxazepam-Propranolol-BatchFormula-Identification"
          }
        ],
        "combinedPharmaceuticalDoseForm": {
          "coding": [
            {
              "code": "C42953",
              "system": "http://ncicb.nci.nih.gov/xml/owl/EVS/Thesaurus.owl",
              "display": "LIQUID"
            }
          ]
        },
        "route": [
          {
            "coding": [
              {
                "code": "C38288",
                "system": "http://ncicb.nci.nih.gov/xml/owl/EVS/Thesaurus.owl",
                "display": "ORAL"
              }
            ]
          }
        ],
        "comprisedOf": [
          {
            "reference": "urn:uuid:249ef22b-d521-4304-a388-6b9035f97b22"
          }
        ]
      },
      "fullUrl": "urn:uuid:d0d2df25-5cfa-4417-b8d1-b8147957f53c"
    },
    {
      "resource": {
        "resourceType": "ManufacturedItemDefinition",
        "id": "249ef22b-d521-4304-a388-6b9035f97b22",
        "meta": {
          "profile": [
            "http://hl7.org/fhir/us/pq-cmc-fda/StructureDefinition/pqcmc-product-batch-formula"
          ]
        },
        "property": [
          {
            "type": {
              "text": "Batch Quantity"
            },
            "valueQuantity": {
              "value": 50,
              "code": "L",
              "system": "http://unitsofmeasure.org",
              "unit": "liter"
            }
          },
          {
            "type": {
              "text": "Batch Utilization"
            },
            "valueCodeableConcept": {
              "coding": [
                {
                  "code": "C133990",
                  "system": "http://ncicb.nci.nih.gov/xml/owl/EVS/Thesaurus.owl",
                  "display": "Commercial"
                }
              ]
            }
          },
          {
            "type": {
              "text": "Batch Formula Additional Information"
            },
            "valueMarkdown": "Makes 50 Litres of product, accounting for losses from evaporation and spillage"
          }
        ],
        "component": [
          {
            "property": [
              {
                "type": {
                  "text": "Product Part Identifier"
                },
                "valueCodeableConcept": {
                  "text": "solution"
                }
              }
            ],
            "constituent": [
              {
                "extension": [
                  {
                    "url": "http://hl7.org/fhir/us/pq-cmc-fda/StructureDefinition/pq-product-batch-strength-textual-extension",
                    "valueString": "5% atomexetine hydrochloride solution"
                  }
                ],
                "amount": [
                  {
                    "value": 25.42,
                    "code": "g",
                    "system": "http://unitsofmeasure.org",
                    "unit": "gram"
                  },
                  {
                    "value": 0.0477,
                    "code": "%",
                    "system": "http://unitsofmeasure.org",
                    "unit": "percent"
                  }
                ],
                "hasIngredient": [
                  {
                    "reference": {
                      "reference": "urn:uuid:1c1a2a23-1fd7-4487-9682-49877f9f9f77"
                    }
                  }
                ]
              },
              {
                "amount": [
                  {
                    "value": 20.5,
                    "code": "g",
                    "system": "http://unitsofmeasure.org",
                    "unit": "gram"
                  },
                  {
                    "value": 0.0385,
                    "code": "%",
                    "system": "http://unitsofmeasure.org",
                    "unit": "percent"
                  }
                ],
                "hasIngredient": [
                  {
                    "reference": {
                      "reference": "urn:uuid:12cce82f-8595-4860-b7ca-06c9ec0327f2"
                    }
                  }
                ]
              },
              {
                "amount": [
                  {
                    "value": 5,
                    "code": "g",
                    "system": "http://unitsofmeasure.org",
                    "unit": "gram"
                  },
                  {
                    "value": 0.0094,
                    "code": "%",
                    "system": "http://unitsofmeasure.org",
                    "unit": "percent"
                  }
                ],
                "hasIngredient": [
                  {
                    "reference": {
                      "reference": "urn:uuid:45eb4f05-83d9-4819-bb60-96c7c5ce2b76"
                    }
                  }
                ]
              },
              {
                "amount": [
                  {
                    "value": 2.27,
                    "code": "kg",
                    "system": "http://unitsofmeasure.org",
                    "unit": "kilogram"
                  },
                  {
                    "value": 4.2652,
                    "code": "%",
                    "system": "http://unitsofmeasure.org",
                    "unit": "percent"
                  }
                ],
                "hasIngredient": [
                  {
                    "reference": {
                      "reference": "urn:uuid:29c0ee76-f62f-41d3-b761-73d5f205e552"
                    }
                  }
                ]
              },
              {
                "amount": [
                  {
                    "value": 150,
                    "code": "g",
                    "system": "http://unitsofmeasure.org",
                    "unit": "gram"
                  },
                  {
                    "value": 0.2818,
                    "code": "%",
                    "system": "http://unitsofmeasure.org",
                    "unit": "percent"
                  }
                ],
                "hasIngredient": [
                  {
                    "reference": {
                      "reference": "urn:uuid:44fad9fd-826a-4f0c-9f25-e0a78d1c4269"
                    }
                  }
                ]
              },
              {
                "amount": [
                  {
                    "value": 50.75,
                    "code": "kg",
                    "system": "http://unitsofmeasure.org",
                    "unit": "kilogram"
                  },
                  {
                    "value": 95.3572,
                    "code": "%",
                    "system": "http://unitsofmeasure.org",
                    "unit": "percent"
                  }
                ],
                "hasIngredient": [
                  {
                    "reference": {
                      "reference": "urn:uuid:d0574580-7694-4a36-8a27-5bdbccfc5557"
                    }
                  }
                ]
              }
            ],
            "type": {
              "coding": [
                {
                  "code": "C42986",
                  "system": "http://ncicb.nci.nih.gov/xml/owl/EVS/Thesaurus.owl",
                  "display": "Solution"
                }
              ]
            },
            "amount": [
              {
                "value": 53.2,
                "code": "kg",
                "system": "http://unitsofmeasure.org",
                "unit": "kilogram"
              },
              {
                "value": 100,
                "code": "%",
                "system": "http://unitsofmeasure.org",
                "unit": "percent"
              }
            ]
          }
        ],
        "identifier": [
          {
            "value": "Oxazepam-Propranolol-BatchFormula"
          }
        ],
        "status": "active",
        "name": "ATOMOXETINE HYDROCHLORIDE 1mg",
        "manufacturedDoseForm": {
          "coding": [
            {
              "code": "C45298",
              "system": "http://ncicb.nci.nih.gov/xml/owl/EVS/Thesaurus.owl",
              "display": "Liquid"
            }
          ]
        },
        "manufacturer": [
          {
            "reference": "urn:uuid:e875ef93-a730-4c44-bead-53663ae7f501"
          }
        ]
      },
      "fullUrl": "urn:uuid:249ef22b-d521-4304-a388-6b9035f97b22"
    },
    {
      "resource": {
        "resourceType": "Ingredient",
        "id": "1c1a2a23-1fd7-4487-9682-49877f9f9f77",
        "meta": {
          "profile": [
            "http://hl7.org/fhir/us/pq-cmc-fda/StructureDefinition/pqcmc-dp-ingredient"
          ]
        },
        "identifier": {
          "value": "AtomexetineHydrochlorideBFIngredient"
        },
        "status": "active",
        "role": {
          "coding": [
            {
              "code": "C82533",
              "system": "http://ncicb.nci.nih.gov/xml/owl/EVS/Thesaurus.owl",
              "display": "Active Ingredient"
            }
          ]
        },
        "substance": {
          "code": {
            "reference": {
              "reference": "urn:uuid:717d868e-6696-4ebb-adf4-63eadb3bf058"
            }
          },
          "strength": [
            {
              "concentrationQuantity": {
                "value": 25.42,
                "code": "g",
                "system": "http://unitsofmeasure.org",
                "unit": "gram"
              }
            },
            {
              "concentrationQuantity": {
                "value": 0.0477,
                "code": "%",
                "system": "http://unitsofmeasure.org",
                "unit": "percent"
              }
            }
          ]
        }
      },
      "fullUrl": "urn:uuid:1c1a2a23-1fd7-4487-9682-49877f9f9f77"
    },
    {
      "resource": {
        "resourceType": "SubstanceDefinition",
        "id": "717d868e-6696-4ebb-adf4-63eadb3bf058",
        "meta": {
          "profile": [
            "http://hl7.org/fhir/us/pq-cmc-fda/StructureDefinition/pqcmc-routine-drug-substance"
          ]
        },
        "name": [
          {
            "type": {
              "coding": [
                {
                  "code": "C203355",
                  "system": "http://ncicb.nci.nih.gov/xml/owl/EVS/Thesaurus.owl",
                  "display": "GSRS Preferred Term"
                }
              ]
            },
            "name": "ATOMOXETINE HYDROCHLORIDE",
            "preferred": true
          }
        ],
        "classification": [
          {
            "coding": [
              {
                "code": "C48807",
                "system": "http://ncicb.nci.nih.gov/xml/owl/EVS/Thesaurus.owl",
                "display": "Chemical"
              }
            ]
          }
        ],
        "grade": [
          {
            "coding": [
              {
                "code": "C134006",
                "system": "http://ncicb.nci.nih.gov/xml/owl/EVS/Thesaurus.owl",
                "display": "USP-NF"
              }
            ]
          }
        ],
        "manufacturer": [
          {
            "reference": "urn:uuid:e875ef93-a730-4c44-bead-53663ae7f501"
          }
        ],
        "code": [
          {
            "code": {
              "coding": [
                {
                  "code": "57WVB6I2W0",
                  "system": "http://fdasis.nlm.nih.gov"
                }
              ]
            }
          }
        ]
      },
      "fullUrl": "urn:uuid:717d868e-6696-4ebb-adf4-63eadb3bf058"
    },
    {
      "resource": {
        "resourceType": "Ingredient",
        "id": "12cce82f-8595-4860-b7ca-06c9ec0327f2",
        "meta": {
          "profile": [
            "http://hl7.org/fhir/us/pq-cmc-fda/StructureDefinition/pqcmc-dp-ingredient"
          ]
        },
        "identifier": {
          "value": "GlacialAceticAcidBFIngredient"
        },
        "status": "active",
        "role": {
          "coding": [
            {
              "code": "C42637",
              "system": "http://ncicb.nci.nih.gov/xml/owl/EVS/Thesaurus.owl",
              "display": "Inactive Ingredient"
            }
          ]
        },
        "substance": {
          "code": {
            "reference": {
              "reference": "urn:uuid:45942749-64db-4f91-88c3-51adb680fed1"
            }
          },
          "strength": [
            {
              "concentrationQuantity": {
                "value": 20.5,
                "code": "g",
                "system": "http://unitsofmeasure.org",
                "unit": "gram"
              }
            },
            {
              "concentrationQuantity": {
                "value": 0.0385,
                "code": "%",
                "system": "http://unitsofmeasure.org",
                "unit": "percent"
              }
            }
          ]
        }
      },
      "fullUrl": "urn:uuid:12cce82f-8595-4860-b7ca-06c9ec0327f2"
    },
    {
      "resource": {
        "resourceType": "SubstanceDefinition",
        "id": "45942749-64db-4f91-88c3-51adb680fed1",
        "meta": {
          "profile": [
            "http://hl7.org/fhir/us/pq-cmc-fda/StructureDefinition/pqcmc-excipient"
          ]
        },
        "name": [
          {
            "type": {
              "coding": [
                {
                  "code": "C203355",
                  "system": "http://ncicb.nci.nih.gov/xml/owl/EVS/Thesaurus.owl",
                  "display": "GSRS Preferred Term"
                }
              ]
            },
            "name": "ACETIC ACID",
            "preferred": true
          }
        ],
        "classification": [
          {
            "coding": [
              {
                "code": "C48807",
                "system": "http://ncicb.nci.nih.gov/xml/owl/EVS/Thesaurus.owl",
                "display": "Chemical"
              }
            ]
          }
        ],
        "grade": [
          {
            "coding": [
              {
                "code": "C134006",
                "system": "http://ncicb.nci.nih.gov/xml/owl/EVS/Thesaurus.owl",
                "display": "USP-NF"
              }
            ]
          }
        ],
        "code": [
          {
            "code": {
              "coding": [
                {
                  "code": "Q40Q9N063P",
                  "system": "http://fdasis.nlm.nih.gov"
                }
              ]
            }
          }
        ],
        "sourceMaterial": {
          "type": {
            "coding": [
              {
                "code": "C48807",
                "system": "http://ncicb.nci.nih.gov/xml/owl/EVS/Thesaurus.owl",
                "display": "Chemical"
              }
            ]
          }
        }
      },
      "fullUrl": "urn:uuid:45942749-64db-4f91-88c3-51adb680fed1"
    },
    {
      "resource": {
        "resourceType": "Ingredient",
        "id": "45eb4f05-83d9-4819-bb60-96c7c5ce2b76",
        "meta": {
          "profile": [
            "http://hl7.org/fhir/us/pq-cmc-fda/StructureDefinition/pqcmc-dp-ingredient"
          ]
        },
        "identifier": {
          "value": "AnhydrousSodiumAcetateBFIngredient"
        },
        "status": "active",
        "role": {
          "coding": [
            {
              "code": "C42637",
              "system": "http://ncicb.nci.nih.gov/xml/owl/EVS/Thesaurus.owl",
              "display": "Inactive Ingredient"
            }
          ]
        },
        "substance": {
          "code": {
            "reference": {
              "reference": "urn:uuid:07c598ee-3dcf-45b7-b4e5-b24812c22aff"
            }
          },
          "strength": [
            {
              "concentrationQuantity": {
                "value": 5,
                "code": "g",
                "system": "http://unitsofmeasure.org",
                "unit": "gram"
              }
            },
            {
              "concentrationQuantity": {
                "value": 0.0094,
                "code": "%",
                "system": "http://unitsofmeasure.org",
                "unit": "percent"
              }
            }
          ]
        }
      },
      "fullUrl": "urn:uuid:45eb4f05-83d9-4819-bb60-96c7c5ce2b76"
    },
    {
      "resource": {
        "resourceType": "SubstanceDefinition",
        "id": "07c598ee-3dcf-45b7-b4e5-b24812c22aff",
        "meta": {
          "profile": [
            "http://hl7.org/fhir/us/pq-cmc-fda/StructureDefinition/pqcmc-excipient"
          ]
        },
        "name": [
          {
            "type": {
              "coding": [
                {
                  "code": "C203355",
                  "system": "http://ncicb.nci.nih.gov/xml/owl/EVS/Thesaurus.owl",
                  "display": "GSRS Preferred Term"
                }
              ]
            },
            "name": "SODIUM ACETATE ANHYDROUS",
            "preferred": true
          }
        ],
        "classification": [
          {
            "coding": [
              {
                "code": "C48807",
                "system": "http://ncicb.nci.nih.gov/xml/owl/EVS/Thesaurus.owl",
                "display": "Chemical"
              }
            ]
          }
        ],
        "grade": [
          {
            "coding": [
              {
                "code": "C134006",
                "system": "http://ncicb.nci.nih.gov/xml/owl/EVS/Thesaurus.owl",
                "display": "USP-NF"
              }
            ]
          }
        ],
        "code": [
          {
            "code": {
              "coding": [
                {
                  "code": "NVG71ZZ7P0",
                  "system": "http://fdasis.nlm.nih.gov"
                }
              ]
            }
          }
        ],
        "sourceMaterial": {
          "type": {
            "coding": [
              {
                "code": "C48807",
                "system": "http://ncicb.nci.nih.gov/xml/owl/EVS/Thesaurus.owl",
                "display": "Chemical"
              }
            ]
          }
        }
      },
      "fullUrl": "urn:uuid:07c598ee-3dcf-45b7-b4e5-b24812c22aff"
    },
    {
      "resource": {
        "resourceType": "Ingredient",
        "id": "29c0ee76-f62f-41d3-b761-73d5f205e552",
        "meta": {
          "profile": [
            "http://hl7.org/fhir/us/pq-cmc-fda/StructureDefinition/pqcmc-dp-ingredient"
          ]
        },
        "identifier": {
          "value": "MannitolBFIngredient"
        },
        "status": "active",
        "role": {
          "coding": [
            {
              "code": "C42637",
              "system": "http://ncicb.nci.nih.gov/xml/owl/EVS/Thesaurus.owl",
              "display": "Inactive Ingredient"
            }
          ]
        },
        "substance": {
          "code": {
            "reference": {
              "reference": "urn:uuid:a339a562-e325-4ce6-a830-d25c27b5e2da"
            }
          },
          "strength": [
            {
              "concentrationQuantity": {
                "value": 2.27,
                "code": "kg",
                "system": "http://unitsofmeasure.org",
                "unit": "kilogram"
              }
            },
            {
              "concentrationQuantity": {
                "value": 4.2652,
                "code": "%",
                "system": "http://unitsofmeasure.org",
                "unit": "percent"
              }
            }
          ]
        }
      },
      "fullUrl": "urn:uuid:29c0ee76-f62f-41d3-b761-73d5f205e552"
    },
    {
      "resource": {
        "resourceType": "SubstanceDefinition",
        "id": "a339a562-e325-4ce6-a830-d25c27b5e2da",
        "meta": {
          "profile": [
            "http://hl7.org/fhir/us/pq-cmc-fda/StructureDefinition/pqcmc-excipient"
          ]
        },
        "name": [
          {
            "type": {
              "coding": [
                {
                  "code": "C203355",
                  "system": "http://ncicb.nci.nih.gov/xml/owl/EVS/Thesaurus.owl",
                  "display": "GSRS Preferred Term"
                }
              ]
            },
            "name": "MANNITOL",
            "preferred": true
          }
        ],
        "classification": [
          {
            "coding": [
              {
                "code": "C48807",
                "system": "http://ncicb.nci.nih.gov/xml/owl/EVS/Thesaurus.owl",
                "display": "Chemical"
              }
            ]
          }
        ],
        "grade": [
          {
            "coding": [
              {
                "code": "C134006",
                "system": "http://ncicb.nci.nih.gov/xml/owl/EVS/Thesaurus.owl",
                "display": "USP-NF"
              }
            ]
          }
        ],
        "code": [
          {
            "code": {
              "coding": [
                {
                  "code": "3OWL53L36A",
                  "system": "http://fdasis.nlm.nih.gov"
                }
              ]
            }
          }
        ],
        "sourceMaterial": {
          "type": {
            "coding": [
              {
                "code": "C48807",
                "system": "http://ncicb.nci.nih.gov/xml/owl/EVS/Thesaurus.owl",
                "display": "Chemical"
              }
            ]
          }
        }
      },
      "fullUrl": "urn:uuid:a339a562-e325-4ce6-a830-d25c27b5e2da"
    },
    {
      "resource": {
        "resourceType": "Ingredient",
        "id": "44fad9fd-826a-4f0c-9f25-e0a78d1c4269",
        "meta": {
          "profile": [
            "http://hl7.org/fhir/us/pq-cmc-fda/StructureDefinition/pqcmc-dp-ingredient"
          ]
        },
        "identifier": {
          "value": "MetacresolBFIngredient"
        },
        "status": "active",
        "role": {
          "coding": [
            {
              "code": "C42637",
              "system": "http://ncicb.nci.nih.gov/xml/owl/EVS/Thesaurus.owl",
              "display": "Inactive Ingredient"
            }
          ]
        },
        "substance": {
          "code": {
            "reference": {
              "reference": "urn:uuid:c75df5fb-e962-43a6-9dd3-c6682da10a7e"
            }
          },
          "strength": [
            {
              "concentrationQuantity": {
                "value": 150,
                "code": "g",
                "system": "http://unitsofmeasure.org",
                "unit": "gram"
              }
            },
            {
              "concentrationQuantity": {
                "value": 0.2818,
                "code": "%",
                "system": "http://unitsofmeasure.org",
                "unit": "percent"
              }
            }
          ]
        }
      },
      "fullUrl": "urn:uuid:44fad9fd-826a-4f0c-9f25-e0a78d1c4269"
    },
    {
      "resource": {
        "resourceType": "SubstanceDefinition",
        "id": "c75df5fb-e962-43a6-9dd3-c6682da10a7e",
        "meta": {
          "profile": [
            "http://hl7.org/fhir/us/pq-cmc-fda/StructureDefinition/pqcmc-excipient"
          ]
        },
        "name": [
          {
            "type": {
              "coding": [
                {
                  "code": "C203355",
                  "system": "http://ncicb.nci.nih.gov/xml/owl/EVS/Thesaurus.owl",
                  "display": "GSRS Preferred Term"
                }
              ]
            },
            "name": "METACRESOL",
            "preferred": true
          }
        ],
        "classification": [
          {
            "coding": [
              {
                "code": "C48807",
                "system": "http://ncicb.nci.nih.gov/xml/owl/EVS/Thesaurus.owl",
                "display": "Chemical"
              }
            ]
          }
        ],
        "grade": [
          {
            "coding": [
              {
                "code": "C134006",
                "system": "http://ncicb.nci.nih.gov/xml/owl/EVS/Thesaurus.owl",
                "display": "USP-NF"
              }
            ]
          }
        ],
        "code": [
          {
            "code": {
              "coding": [
                {
                  "code": "GGO4Y809LO",
                  "system": "http://fdasis.nlm.nih.gov"
                }
              ]
            }
          }
        ],
        "sourceMaterial": {
          "type": {
            "coding": [
              {
                "code": "C48807",
                "system": "http://ncicb.nci.nih.gov/xml/owl/EVS/Thesaurus.owl",
                "display": "Chemical"
              }
            ]
          }
        }
      },
      "fullUrl": "urn:uuid:c75df5fb-e962-43a6-9dd3-c6682da10a7e"
    },
    {
      "resource": {
        "resourceType": "Ingredient",
        "id": "d0574580-7694-4a36-8a27-5bdbccfc5557",
        "meta": {
          "profile": [
            "http://hl7.org/fhir/us/pq-cmc-fda/StructureDefinition/pqcmc-dp-ingredient"
          ]
        },
        "identifier": {
          "value": "WaterBFIngredient"
        },
        "status": "active",
        "role": {
          "coding": [
            {
              "code": "C42637",
              "system": "http://ncicb.nci.nih.gov/xml/owl/EVS/Thesaurus.owl",
              "display": "Inactive Ingredient"
            }
          ]
        },
        "substance": {
          "code": {
            "reference": {
              "reference": "urn:uuid:c4e5b7c6-2e52-48e3-813b-d227cf29329b"
            }
          },
          "strength": [
            {
              "concentrationQuantity": {
                "value": 50.75,
                "code": "kg",
                "system": "http://unitsofmeasure.org",
                "unit": "kilogram"
              }
            },
            {
              "concentrationQuantity": {
                "value": 95.3572,
                "code": "%",
                "system": "http://unitsofmeasure.org",
                "unit": "percent"
              }
            }
          ]
        }
      },
      "fullUrl": "urn:uuid:d0574580-7694-4a36-8a27-5bdbccfc5557"
    },
    {
      "resource": {
        "resourceType": "SubstanceDefinition",
        "id": "c4e5b7c6-2e52-48e3-813b-d227cf29329b",
        "meta": {
          "profile": [
            "http://hl7.org/fhir/us/pq-cmc-fda/StructureDefinition/pqcmc-excipient"
          ]
        },
        "name": [
          {
            "type": {
              "coding": [
                {
                  "code": "C203355",
                  "system": "http://ncicb.nci.nih.gov/xml/owl/EVS/Thesaurus.owl",
                  "display": "GSRS Preferred Term"
                }
              ]
            },
            "name": "WATER",
            "preferred": true
          }
        ],
        "classification": [
          {
            "coding": [
              {
                "code": "C48807",
                "system": "http://ncicb.nci.nih.gov/xml/owl/EVS/Thesaurus.owl",
                "display": "Chemical"
              }
            ]
          }
        ],
        "grade": [
          {
            "coding": [
              {
                "code": "C134006",
                "system": "http://ncicb.nci.nih.gov/xml/owl/EVS/Thesaurus.owl",
                "display": "USP-NF"
              }
            ]
          }
        ],
        "code": [
          {
            "code": {
              "coding": [
                {
                  "code": "059QF0KO0R",
                  "system": "http://fdasis.nlm.nih.gov"
                }
              ]
            }
          }
        ],
        "sourceMaterial": {
          "type": {
            "coding": [
              {
                "code": "C48807",
                "system": "http://ncicb.nci.nih.gov/xml/owl/EVS/Thesaurus.owl",
                "display": "Chemical"
              }
            ]
          }
        }
      },
      "fullUrl": "urn:uuid:c4e5b7c6-2e52-48e3-813b-d227cf29329b"
    }
  ]
}
