{
  "resourceType": "Bundle",
  "id": "GeneralInformationBundle",
  "meta": {
    "profile": [
      "http://hl7.org/fhir/us/pq-cmc-fda/StructureDefinition/cmc-ectd-document-32s10"
    ]
  },
  "type": "document",
  "identifier": {
    "system": "urn:ietf:rfc:3986",
    "value": "urn:uuid:1bf43677-1c61-41dd-93c2-8ec7f327d0f1"
  },
  "timestamp": "2023-12-15T22:19:47.022Z",
  "entry": [
    {
      "resource": {
        "resourceType": "Composition",
        "id": "260f5aa3-23d2-4999-8e5f-70f247390ee5",
        "meta": {
          "profile": [
            "http://hl7.org/fhir/us/pq-cmc-fda/StructureDefinition/ectd-composition-32s10"
          ]
        },
        "status": "final",
        "type": {
          "coding": [
            {
              "code": "ich_3.2.s.1",
              "system": "http://terminology.hl7.org/temporary-uri/codeSystem/ICH-context-of-use",
              "display": "General Information"
            }
          ]
        },
        "identifier": [
          {
            "value": "Substance General - levoThyroxine"
          }
        ],
        "author": [
          {
            "reference": "urn:uuid:b69435a0-45c6-4d44-9fde-b354e17408d7"
          }
        ],
        "date": "2023-12-15T22:19:47.022Z",
        "title": "eCTD Substance General Information for levoThyroxine",
        "section": [
          {
            "title": "Drug Substance Nomeclature and Structure for levoThyroxine",
            "entry": [
              {
                "reference": "urn:uuid:21b6b724-507e-4cf4-a462-93334b98d166"
              }
            ]
          }
        ]
      },
      "fullUrl": "urn:uuid:260f5aa3-23d2-4999-8e5f-70f247390ee5"
    },
    {
      "resource": {
        "resourceType": "Organization",
        "id": "b69435a0-45c6-4d44-9fde-b354e17408d7",
        "meta": {
          "profile": [
            "http://hl7.org/fhir/us/pq-cmc-fda/StructureDefinition/cmc-organization"
          ]
        },
        "identifier": [
          {
            "system": "urn:oid:1.3.6.1.4.1.519.1",
            "value": "143265222",
            "type": {
              "coding": [
                {
                  "code": "C134003",
                  "system": "http://ncicb.nci.nih.gov/xml/owl/EVS/Thesaurus.owl",
                  "display": "DUNS"
                }
              ]
            }
          }
        ],
        "name": "Large Life",
        "contact": [
          {
            "address": {
              "type": "postal",
              "line": [
                "123 Broad Way"
              ],
              "state": "NY",
              "city": "New York",
              "country": "USA",
              "postalCode": "10020",
              "text": "123 Broad Way, New York, NY, United States"
            }
          }
        ]
      },
      "fullUrl": "urn:uuid:b69435a0-45c6-4d44-9fde-b354e17408d7"
    },
    {
      "resource": {
        "resourceType": "SubstanceDefinition",
        "id": "21b6b724-507e-4cf4-a462-93334b98d166",
        "meta": {
          "profile": [
            "http://hl7.org/fhir/us/pq-cmc-fda/StructureDefinition/pqcmc-drug-substance-nomenclature-structure"
          ]
        },
        "structure": {
          "representation": [
            {
              "type": {
                "coding": [
                  {
                    "code": "C45253",
                    "system": "http://ncicb.nci.nih.gov/xml/owl/EVS/Thesaurus.owl"
                  }
                ]
              },
              "representation": "YDTFRJLNMPSCFM-YDALLXLXSA-M",
              "format": {
                "coding": [
                  {
                    "code": "C54683",
                    "system": "http://ncicb.nci.nih.gov/xml/owl/EVS/Thesaurus.owl",
                    "display": "InChI File (small molecule)"
                  }
                ]
              }
            },
            {
              "type": {
                "coding": [
                  {
                    "code": "C45253",
                    "system": "http://ncicb.nci.nih.gov/xml/owl/EVS/Thesaurus.owl"
                  }
                ]
              },
              "representation": "[Na+].N[C@@H](CC1=CC(I)=C(OC2=CC(I)=C(O)C(I)=C2)C(I)=C1)C([O-])=O",
              "format": {
                "coding": [
                  {
                    "code": "C54684",
                    "system": "http://ncicb.nci.nih.gov/xml/owl/EVS/Thesaurus.owl",
                    "display": "SMILES"
                  }
                ]
              }
            },
            {
              "type": {
                "coding": [
                  {
                    "code": "C54273",
                    "system": "http://ncicb.nci.nih.gov/xml/owl/EVS/Thesaurus.owl"
                  }
                ]
              },
              "document": {
                "reference": "urn:uuid:d94ad7ac-b935-432f-bc68-312b6b8dcca7"
              }
            },
            {
              "type": {
                "coding": [
                  {
                    "code": "C103240",
                    "system": "http://ncicb.nci.nih.gov/xml/owl/EVS/Thesaurus.owl"
                  }
                ]
              },
              "document": {
                "reference": "urn:uuid:22bd989e-8056-494f-9bc1-195d13428179"
              }
            }
          ],
          "technique": [
            {
              "text": "NMR Spectroscopy"
            }
          ]
        },
        "name": [
          {
            "type": {
              "coding": [
                {
                  "code": "C203355",
                  "system": "http://ncicb.nci.nih.gov/xml/owl/EVS/Thesaurus.owl",
                  "display": "GSRS Preferred Term"
                }
              ]
            },
            "name": "LEVOTHYROXINE SODIUM ANHYDROUS",
            "preferred": true
          },
          {
            "type": {
              "coding": [
                {
                  "code": "C203356",
                  "system": "http://ncicb.nci.nih.gov/xml/owl/EVS/Thesaurus.owl",
                  "display": "IUPAC Name"
                }
              ]
            },
            "name": "sodium;(2S)-2-amino-3-[4-(4-hydroxy-3,5-diiodophenoxy)-3,5-diiodophenyl]propanoate"
          },
          {
            "type": {
              "coding": [
                {
                  "code": "C54682",
                  "system": "http://ncicb.nci.nih.gov/xml/owl/EVS/Thesaurus.owl",
                  "display": "CAS Number"
                }
              ]
            },
            "name": "55-03-8"
          }
        ],
        "relationship": [
          {
            "type": {
              "text": "Polymorph"
            },
            "substanceDefinitionReference": {
              "reference": "urn:uuid:832f22b4-6f0c-41f8-9b7d-f26f55e9973c"
            }
          }
        ],
        "identifier": [
          {
            "value": "levoThyroxine"
          }
        ],
        "classification": [
          {
            "coding": [
              {
                "code": "C48807",
                "system": "http://ncicb.nci.nih.gov/xml/owl/EVS/Thesaurus.owl",
                "display": "Chemical"
              }
            ]
          }
        ],
        "manufacturer": [
          {
            "reference": "urn:uuid:e875ef93-a730-4c44-bead-53663ae7f501"
          }
        ],
        "molecularWeight": [
          {
            "amount": {
              "code": "u",
              "system": "http://unitsofmeasure.org",
              "unit": "unified atomic mass unit",
              "value": 798.85
            }
          }
        ],
        "supplier": [
          {
            "reference": "urn:uuid:e165f057-5eed-4e64-8328-4438fc88fb1b"
          }
        ],
        "code": [
          {
            "code": {
              "coding": [
                {
                  "code": "054I36CPMN",
                  "system": "http://fdasis.nlm.nih.gov"
                }
              ]
            }
          }
        ]
      },
      "fullUrl": "urn:uuid:21b6b724-507e-4cf4-a462-93334b98d166"
    },
    {
      "resource": {
        "resourceType": "SubstanceDefinition",
        "id": "832f22b4-6f0c-41f8-9b7d-f26f55e9973c",
        "meta": {
          "profile": [
            "http://hl7.org/fhir/us/pq-cmc-fda/StructureDefinition/pqcmc-polymorphic-form"
          ]
        },
        "structure": {
          "representation": [
            {
              "type": {
                "coding": [
                  {
                    "code": "C45253",
                    "system": "http://ncicb.nci.nih.gov/xml/owl/EVS/Thesaurus.owl"
                  }
                ]
              },
              "representation": "ANMYAHDLKVNJJO-CURYUGHLSA-M",
              "format": {
                "coding": [
                  {
                    "code": "C54683",
                    "system": "http://ncicb.nci.nih.gov/xml/owl/EVS/Thesaurus.owl",
                    "display": "InChI File (small molecule)"
                  }
                ]
              }
            },
            {
              "type": {
                "coding": [
                  {
                    "code": "C45253",
                    "system": "http://ncicb.nci.nih.gov/xml/owl/EVS/Thesaurus.owl"
                  }
                ]
              },
              "representation": "O.[Na+].N[C@H](CC1=CC(I)=C(OC2=CC(I)=C(O)C(I)=C2)C(I)=C1)C([O-])=O",
              "format": {
                "coding": [
                  {
                    "code": "C54684",
                    "system": "http://ncicb.nci.nih.gov/xml/owl/EVS/Thesaurus.owl",
                    "display": "SMILES"
                  }
                ]
              }
            },
            {
              "type": {
                "coding": [
                  {
                    "code": "C54273",
                    "system": "http://ncicb.nci.nih.gov/xml/owl/EVS/Thesaurus.owl"
                  }
                ]
              },
              "document": {
                "reference": "urn:uuid:0382d6b1-b656-4e9a-b5c8-9110c4d3f6b3"
              }
            }
          ],
          "molecularFormula": "C15H10I4NO4.Na.H2O"
        },
        "name": [
          {
            "type": {
              "coding": [
                {
                  "code": "C203355",
                  "system": "http://ncicb.nci.nih.gov/xml/owl/EVS/Thesaurus.owl",
                  "display": "GSRS Preferred Term"
                }
              ]
            },
            "name": "DEXTROTHYROXINE SODIUM",
            "preferred": true
          }
        ],
        "identifier": [
          {
            "value": "DextroThyroxine"
          }
        ],
        "code": [
          {
            "code": {
              "coding": [
                {
                  "code": "0H00N2AHSP",
                  "system": "http://fdasis.nlm.nih.gov"
                }
              ]
            }
          }
        ]
      },
      "fullUrl": "urn:uuid:832f22b4-6f0c-41f8-9b7d-f26f55e9973c"
    },
    {
      "resource": {
        "resourceType": "Organization",
        "id": "e165f057-5eed-4e64-8328-4438fc88fb1b",
        "meta": {
          "profile": [
            "http://hl7.org/fhir/us/pq-cmc-fda/StructureDefinition/cmc-organization"
          ]
        },
        "identifier": [
          {
            "system": "urn:oid:1.3.6.1.4.1.519.1",
            "value": "143265222",
            "type": {
              "coding": [
                {
                  "code": "C134003",
                  "system": "http://ncicb.nci.nih.gov/xml/owl/EVS/Thesaurus.owl",
                  "display": "DUNS"
                }
              ]
            }
          }
        ],
        "name": "Vandechemie",
        "contact": [
          {
            "address": {
              "type": "postal",
              "text": "Vandechemie, Ruzettelaan 39234, Blankenberge, 8370, Belgium",
              "line": [
                "Ruzettelaan 39234"
              ],
              "city": "Blankenberge",
              "postalCode": "8370",
              "country": "BEL"
            }
          }
        ]
      },
      "fullUrl": "urn:uuid:e165f057-5eed-4e64-8328-4438fc88fb1b"
    },
    {
      "resource": {
        "resourceType": "Organization",
        "id": "e875ef93-a730-4c44-bead-53663ae7f501",
        "meta": {
          "profile": [
            "http://hl7.org/fhir/us/pq-cmc-fda/StructureDefinition/cmc-organization"
          ]
        },
        "identifier": [
          {
            "system": "urn:oid:1.3.6.1.4.1.519.1",
            "value": "147275722",
            "type": {
              "coding": [
                {
                  "code": "C134003",
                  "system": "http://ncicb.nci.nih.gov/xml/owl/EVS/Thesaurus.owl",
                  "display": "DUNS"
                }
              ]
            }
          },
          {
            "system": "urn:oid:2.16.840.1.113883.4.82",
            "type": {
              "coding": [
                {
                  "code": "C134004",
                  "system": "http://ncicb.nci.nih.gov/xml/owl/EVS/Thesaurus.owl",
                  "display": "FEI"
                }
              ]
            },
            "value": "6981397"
          }
        ],
        "name": "East-West Manufacturing",
        "contact": [
          {
            "address": {
              "type": "postal",
              "line": [
                "100 Stillwater Avenue",
                "Building #2"
              ],
              "state": "ME",
              "city": "Bangor",
              "country": "USA",
              "postalCode": "04401",
              "text": "East-West Manufacturing, 100 Stillwater Avenue, Building #2, Bangor, ME, United States"
            }
          }
        ]
      },
      "fullUrl": "urn:uuid:e875ef93-a730-4c44-bead-53663ae7f501"
    },
    {
      "resource": {
        "resourceType": "DocumentReference",
        "id": "0382d6b1-b656-4e9a-b5c8-9110c4d3f6b3",
        "meta": {
          "profile": [
            "http://hl7.org/fhir/us/pq-cmc-fda/StructureDefinition/pqcmc-graphic-reference"
          ]
        },
        "status": "current",
        "content": [
          {
            "attachment": {
              "contentType": "image/png",
              "data": "",
              "title": "Monosodium_D-thyroxine_hydrate.png"
            }
          }
        ]
      },
      "fullUrl": "urn:uuid:0382d6b1-b656-4e9a-b5c8-9110c4d3f6b3"
    },
    {
      "resource": {
        "resourceType": "DocumentReference",
        "id": "d94ad7ac-b935-432f-bc68-312b6b8dcca7",
        "meta": {
          "profile": [
            "http://hl7.org/fhir/us/pq-cmc-fda/StructureDefinition/pqcmc-graphic-reference"
          ]
        },
        "status": "current",
        "content": [
          {
            "attachment": {
              "contentType": "image/png",
              "data": "",
              "title": "Levothyroid.png"
            }
          }
        ]
      },
      "fullUrl": "urn:uuid:d94ad7ac-b935-432f-bc68-312b6b8dcca7"
    },
    {
      "resource": {
        "resourceType": "DocumentReference",
        "id": "22bd989e-8056-494f-9bc1-195d13428179",
        "meta": {
          "profile": [
            "http://hl7.org/fhir/us/pq-cmc-fda/StructureDefinition/pqcmc-structure-reference"
          ]
        },
        "status": "current",
        "content": [
          {
            "attachment": {
              "contentType": "application/x-mdl-sdfile",
              "data": "",
              "title": "L-thyroxine-3D-structure-CT1000583834.sdf"
            }
          }
        ]
      },
      "fullUrl": "urn:uuid:22bd989e-8056-494f-9bc1-195d13428179"
    }
  ]
}
