{
  "resourceType": "Bundle",
  "id": "SpecificationExcipientBundle",
  "meta": {
    "profile": [
      "http://hl7.org/fhir/us/pq-cmc-fda/StructureDefinition/cmc-ectd-document-sp4151"
    ]
  },
  "type": "document",
  "identifier": {
    "system": "urn:ietf:rfc:3986",
    "value": "urn:uuid:813b4312-8b6d-42cc-9b8c-8bb6463388cc"
  },
  "timestamp": "2024-01-01T19:42:35.255Z",
  "entry": [
    {
      "resource": {
        "resourceType": "Composition",
        "id": "4bd1ed57-852b-42be-a9b0-355f8a2aa7d4",
        "meta": {
          "profile": [
            "http://hl7.org/fhir/us/pq-cmc-fda/StructureDefinition/ectd-composition-sp4151"
          ]
        },
        "status": "final",
        "identifier": [
          {
            "value": "CochinealSpecificationComposition"
          }
        ],
        "type": {
          "coding": [
            {
              "code": "ich_3.2.p.4",
              "system": "http://terminology.hl7.org/temporary-uri/codeSystem/ICH-context-of-use",
              "display": "Control of Excipients"
            }
          ]
        },
        "author": [
          {
            "reference": "urn:uuid:4f3e9af1-306b-4fad-bf04-7881400b266a"
          }
        ],
        "date": "2024-01-01T19:42:35.254Z",
        "title": "Cochineal specification Composition Example",
        "section": [
          {
            "title": "32P40",
            "entry": [
              {
                "reference": "urn:uuid:37bf5cc0-33bf-478b-b84e-ccb35143ef6e"
              }
            ]
          }
        ]
      },
      "fullUrl": "urn:uuid:4bd1ed57-852b-42be-a9b0-355f8a2aa7d4"
    },
    {
      "resource": {
        "resourceType": "PlanDefinition",
        "id": "37bf5cc0-33bf-478b-b84e-ccb35143ef6e",
        "meta": {
          "profile": [
            "http://hl7.org/fhir/us/pq-cmc-fda/StructureDefinition/pqcmc-quality-specification"
          ]
        },
        "extension": [
          {
            "url": "http://hl7.org/fhir/us/pq-cmc-fda/StructureDefinition/pq-specification-status-extension",
            "valueCodeableConcept": {
              "coding": [
                {
                  "code": "C48660",
                  "system": "http://ncicb.nci.nih.gov/xml/owl/EVS/Thesaurus.owl",
                  "display": "Not Applicable"
                }
              ]
            }
          }
        ],
        "type": {
          "coding": [
            {
              "code": "workflow-definition",
              "system": "http://terminology.hl7.org/CodeSystem/plan-definition-type",
              "display": "Workflow Definition"
            },
            {
              "code": "C133931",
              "system": "http://ncicb.nci.nih.gov/xml/owl/EVS/Thesaurus.owl",
              "display": "Raw Materials/Excipients/Intermediates/Reagents"
            }
          ]
        },
        "action": [
          {
            "reason": [
              {
                "extension": [
                  {
                    "url": "http://hl7.org/fhir/us/pq-cmc-fda/StructureDefinition/pq-hierarchical-level-extension",
                    "valuePositiveInt": 1
                  }
                ],
                "coding": [
                  {
                    "code": "C205026",
                    "system": "http://ncicb.nci.nih.gov/xml/owl/EVS/Thesaurus.owl",
                    "display": "Organoleptic"
                  }
                ]
              },
              {
                "extension": [
                  {
                    "url": "http://hl7.org/fhir/us/pq-cmc-fda/StructureDefinition/pq-hierarchical-level-extension",
                    "valuePositiveInt": 2
                  }
                ],
                "coding": [
                  {
                    "code": "C138990",
                    "system": "http://ncicb.nci.nih.gov/xml/owl/EVS/Thesaurus.owl",
                    "display": "Description/Appearance"
                  }
                ]
              }
            ],
            "documentation": [
              {
                "type": "documentation",
                "label": "EX-TEST-101"
              }
            ],
            "linkId": "b9359ce8-73f3-45c5-9674-98d850053aa2",
            "prefix": "Single Stage",
            "title": "Appearance",
            "code": {
              "coding": [
                {
                  "code": "C96103",
                  "system": "http://ncicb.nci.nih.gov/xml/owl/EVS/Thesaurus.owl",
                  "display": "Proprietary"
                }
              ],
              "text": "Visual"
            },
            "goalId": [
              "e900181a-876c-4ed6-ac96-d5a73c3d6767"
            ]
          },
          {
            "reason": [
              {
                "extension": [
                  {
                    "url": "http://hl7.org/fhir/us/pq-cmc-fda/StructureDefinition/pq-hierarchical-level-extension",
                    "valuePositiveInt": 1
                  }
                ],
                "coding": [
                  {
                    "code": "C138993",
                    "system": "http://ncicb.nci.nih.gov/xml/owl/EVS/Thesaurus.owl",
                    "display": "Identification"
                  }
                ]
              }
            ],
            "documentation": [
              {
                "type": "documentation",
                "label": "EX-TEST-102"
              }
            ],
            "linkId": "443ed163-7a7b-4d48-9462-be5532158411",
            "prefix": "Single Stage",
            "title": "Identification",
            "code": {
              "coding": [
                {
                  "code": "C96103",
                  "system": "http://ncicb.nci.nih.gov/xml/owl/EVS/Thesaurus.owl",
                  "display": "Proprietary"
                }
              ],
              "text": "FTIR"
            },
            "goalId": [
              "21c69fab-2cb3-46dc-8c56-d1c64d5ddf5c"
            ]
          },
          {
            "reason": [
              {
                "extension": [
                  {
                    "url": "http://hl7.org/fhir/us/pq-cmc-fda/StructureDefinition/pq-hierarchical-level-extension",
                    "valuePositiveInt": 1
                  }
                ],
                "coding": [
                  {
                    "code": "C205029",
                    "system": "http://ncicb.nci.nih.gov/xml/owl/EVS/Thesaurus.owl",
                    "display": "pH"
                  }
                ]
              }
            ],
            "documentation": [
              {
                "type": "documentation",
                "label": "EX-TEST-103"
              }
            ],
            "linkId": "058193ee-dd86-4c63-9f47-7b0608abbca4",
            "prefix": "Single Stage",
            "title": "pH",
            "code": {
              "coding": [
                {
                  "code": "C96103",
                  "system": "http://ncicb.nci.nih.gov/xml/owl/EVS/Thesaurus.owl",
                  "display": "Proprietary"
                }
              ],
              "text": "Visual"
            },
            "goalId": [
              "1f476689-f440-4a77-9e9c-0615af3571eb"
            ]
          },
          {
            "reason": [
              {
                "extension": [
                  {
                    "url": "http://hl7.org/fhir/us/pq-cmc-fda/StructureDefinition/pq-hierarchical-level-extension",
                    "valuePositiveInt": 1
                  }
                ],
                "coding": [
                  {
                    "code": "C134276",
                    "system": "http://ncicb.nci.nih.gov/xml/owl/EVS/Thesaurus.owl",
                    "display": "Residue on Ignition"
                  }
                ]
              }
            ],
            "documentation": [
              {
                "type": "documentation",
                "label": "USP <281>"
              }
            ],
            "linkId": "940c8db4-9ed1-416e-84ec-9f9e143be8ab",
            "prefix": "Single Stage",
            "title": "Residue on Ignition",
            "code": {
              "coding": [
                {
                  "code": "C96102",
                  "system": "http://ncicb.nci.nih.gov/xml/owl/EVS/Thesaurus.owl",
                  "display": "Compendial"
                }
              ],
              "text": "Visual"
            },
            "goalId": [
              "9c0d2619-4505-4e6b-a801-bc30f84bc3e2"
            ]
          },
          {
            "reason": [
              {
                "extension": [
                  {
                    "url": "http://hl7.org/fhir/us/pq-cmc-fda/StructureDefinition/pq-hierarchical-level-extension",
                    "valuePositiveInt": 1
                  }
                ],
                "coding": [
                  {
                    "code": "C204971",
                    "system": "http://ncicb.nci.nih.gov/xml/owl/EVS/Thesaurus.owl",
                    "display": "Impurity"
                  }
                ]
              }
            ],
            "documentation": [
              {
                "type": "documentation",
                "label": "EX-TEST-104"
              }
            ],
            "linkId": "9fca0a37-6d10-4273-a966-c026ab6eb07d",
            "prefix": "Single Stage",
            "title": "Impurities",
            "code": {
              "coding": [
                {
                  "code": "C96103",
                  "system": "http://ncicb.nci.nih.gov/xml/owl/EVS/Thesaurus.owl",
                  "display": "Proprietary"
                }
              ],
              "text": "FTIR"
            },
            "goalId": [
              "fc230a97-fd1a-4017-8603-822c5430a217",
              "8d6688e0-7412-4d64-afe8-b73d8aec596e",
              "f8e8343d-a37d-4b91-916b-f58d6947dc9c",
              "be7abaa1-0769-4560-af76-326e07d1df9a",
              "cfdd469d-020b-4047-946f-f513d58f007f"
            ],
            "action": [
              {
                "title": "Unidentified Impurities",
                "action": [
                  {
                    "title": "2.2",
                    "prefix": "RRT",
                    "goalId": [
                      "c5eea380-416f-4d19-a21e-c021f3c7c543"
                    ]
                  },
                  {
                    "title": "2.4",
                    "prefix": "RRT",
                    "goalId": [
                      "41e19fa2-f568-443e-8bc1-6b0a6dca9d0c"
                    ]
                  },
                  {
                    "title": "3.41",
                    "prefix": "RRT",
                    "goalId": [
                      "e493cb3d-45b6-4463-b9b6-e588c51e032c"
                    ]
                  }
                ]
              }
            ]
          }
        ],
        "goal": [
          {
            "id": "e900181a-876c-4ed6-ac96-d5a73c3d6767",
            "description": {
              "text": "White Solid"
            },
            "addresses": [
              {
                "coding": [
                  {
                    "code": "C134029",
                    "system": "http://ncicb.nci.nih.gov/xml/owl/EVS/Thesaurus.owl",
                    "display": "Release"
                  }
                ]
              },
              {
                "coding": [
                  {
                    "code": "C134030",
                    "system": "http://ncicb.nci.nih.gov/xml/owl/EVS/Thesaurus.owl",
                    "display": "Stability"
                  }
                ]
              }
            ],
            "target": [
              {
                "detailString": "White solid"
              }
            ]
          },
          {
            "id": "21c69fab-2cb3-46dc-8c56-d1c64d5ddf5c",
            "description": {
              "text": "IR spectrum conforms to reference standard"
            },
            "addresses": [
              {
                "coding": [
                  {
                    "code": "C134029",
                    "system": "http://ncicb.nci.nih.gov/xml/owl/EVS/Thesaurus.owl",
                    "display": "Release"
                  }
                ]
              },
              {
                "coding": [
                  {
                    "code": "C134030",
                    "system": "http://ncicb.nci.nih.gov/xml/owl/EVS/Thesaurus.owl",
                    "display": "Stability"
                  }
                ]
              }
            ],
            "target": [
              {
                "detailString": "IR spectrum conforms to reference standard"
              }
            ]
          },
          {
            "target": [
              {
                "modifierExtension": [
                  {
                    "url": "http://hl7.org/fhir/us/pq-cmc-fda/StructureDefinition/pq-target-range",
                    "extension": [
                      {
                        "url": "low",
                        "valueQuantity": {
                          "value": 3.4,
                          "code": "[pH]",
                          "system": "http://unitsofmeasure.org",
                          "unit": "[pH]",
                          "comparator": ">="
                        }
                      },
                      {
                        "url": "high",
                        "valueQuantity": {
                          "value": 4.3,
                          "code": "[pH]",
                          "system": "http://unitsofmeasure.org",
                          "unit": "[pH]",
                          "comparator": "<="
                        }
                      }
                    ]
                  }
                ]
              }
            ],
            "id": "1f476689-f440-4a77-9e9c-0615af3571eb",
            "description": {
              "text": "pH 3.4-4.3"
            },
            "addresses": [
              {
                "coding": [
                  {
                    "code": "C134029",
                    "system": "http://ncicb.nci.nih.gov/xml/owl/EVS/Thesaurus.owl",
                    "display": "Release"
                  }
                ]
              },
              {
                "coding": [
                  {
                    "code": "C134030",
                    "system": "http://ncicb.nci.nih.gov/xml/owl/EVS/Thesaurus.owl",
                    "display": "Stability"
                  }
                ]
              }
            ]
          },
          {
            "id": "9c0d2619-4505-4e6b-a801-bc30f84bc3e2",
            "description": {
              "text": "residue <= 0.21%"
            },
            "addresses": [
              {
                "coding": [
                  {
                    "code": "C134029",
                    "system": "http://ncicb.nci.nih.gov/xml/owl/EVS/Thesaurus.owl",
                    "display": "Release"
                  }
                ]
              },
              {
                "coding": [
                  {
                    "code": "C134030",
                    "system": "http://ncicb.nci.nih.gov/xml/owl/EVS/Thesaurus.owl",
                    "display": "Stability"
                  }
                ]
              }
            ],
            "target": [
              {
                "detailQuantity": {
                  "value": 0.21,
                  "code": "%",
                  "system": "http://unitsofmeasure.org",
                  "unit": "percent",
                  "comparator": "<="
                }
              }
            ]
          },
          {
            "id": "fc230a97-fd1a-4017-8603-822c5430a217",
            "description": {
              "text": "Formaldehyde NMT 1.5%"
            },
            "addresses": [
              {
                "coding": [
                  {
                    "code": "C134029",
                    "system": "http://ncicb.nci.nih.gov/xml/owl/EVS/Thesaurus.owl",
                    "display": "Release"
                  }
                ]
              },
              {
                "coding": [
                  {
                    "code": "C134030",
                    "system": "http://ncicb.nci.nih.gov/xml/owl/EVS/Thesaurus.owl",
                    "display": "Stability"
                  }
                ]
              }
            ],
            "target": [
              {
                "detailQuantity": {
                  "value": 1.5,
                  "code": "%",
                  "system": "http://unitsofmeasure.org",
                  "unit": "percent",
                  "comparator": "<="
                }
              }
            ]
          },
          {
            "id": "8d6688e0-7412-4d64-afe8-b73d8aec596e",
            "description": {
              "text": "Impurity C NMT 2%"
            },
            "addresses": [
              {
                "coding": [
                  {
                    "code": "C134029",
                    "system": "http://ncicb.nci.nih.gov/xml/owl/EVS/Thesaurus.owl",
                    "display": "Release"
                  }
                ]
              },
              {
                "coding": [
                  {
                    "code": "C134030",
                    "system": "http://ncicb.nci.nih.gov/xml/owl/EVS/Thesaurus.owl",
                    "display": "Stability"
                  }
                ]
              }
            ],
            "target": [
              {
                "detailQuantity": {
                  "value": 2,
                  "code": "%",
                  "system": "http://unitsofmeasure.org",
                  "unit": "percent",
                  "comparator": "<="
                }
              }
            ]
          },
          {
            "id": "f8e8343d-a37d-4b91-916b-f58d6947dc9c",
            "description": {
              "text": "Unspecified Impurity NMT 0.10 % w/w"
            },
            "addresses": [
              {
                "coding": [
                  {
                    "code": "C134029",
                    "system": "http://ncicb.nci.nih.gov/xml/owl/EVS/Thesaurus.owl",
                    "display": "Release"
                  }
                ]
              },
              {
                "coding": [
                  {
                    "code": "C134030",
                    "system": "http://ncicb.nci.nih.gov/xml/owl/EVS/Thesaurus.owl",
                    "display": "Stability"
                  }
                ]
              }
            ],
            "target": [
              {
                "detailQuantity": {
                  "value": 0.1,
                  "code": "%{WeightToWeight}",
                  "system": "http://unitsofmeasure.org",
                  "unit": "percent WeightToWeight",
                  "comparator": "<="
                }
              }
            ]
          },
          {
            "id": "be7abaa1-0769-4560-af76-326e07d1df9a",
            "description": {
              "text": "Total Impurities"
            },
            "addresses": [
              {
                "coding": [
                  {
                    "code": "C134029",
                    "system": "http://ncicb.nci.nih.gov/xml/owl/EVS/Thesaurus.owl",
                    "display": "Release"
                  }
                ]
              },
              {
                "coding": [
                  {
                    "code": "C134030",
                    "system": "http://ncicb.nci.nih.gov/xml/owl/EVS/Thesaurus.owl",
                    "display": "Stability"
                  }
                ]
              }
            ],
            "target": [
              {
                "detailQuantity": {
                  "value": 0.7,
                  "code": "%",
                  "system": "http://unitsofmeasure.org",
                  "unit": "percent",
                  "comparator": "<="
                }
              }
            ]
          },
          {
            "id": "cfdd469d-020b-4047-946f-f513d58f007f",
            "description": {
              "text": "Total Unidentified Impurities NMT 0.3%"
            },
            "addresses": [
              {
                "coding": [
                  {
                    "code": "C134029",
                    "system": "http://ncicb.nci.nih.gov/xml/owl/EVS/Thesaurus.owl",
                    "display": "Release"
                  }
                ]
              },
              {
                "coding": [
                  {
                    "code": "C134030",
                    "system": "http://ncicb.nci.nih.gov/xml/owl/EVS/Thesaurus.owl",
                    "display": "Stability"
                  }
                ]
              }
            ],
            "target": [
              {
                "detailQuantity": {
                  "value": 0.3,
                  "code": "%",
                  "system": "http://unitsofmeasure.org",
                  "unit": "percent",
                  "comparator": "<="
                }
              }
            ]
          },
          {
            "id": "c5eea380-416f-4d19-a21e-c021f3c7c543",
            "description": {
              "text": "RRT 2.2 NMT 0.10% w/w"
            },
            "addresses": [
              {
                "coding": [
                  {
                    "code": "C134029",
                    "system": "http://ncicb.nci.nih.gov/xml/owl/EVS/Thesaurus.owl",
                    "display": "Release"
                  }
                ]
              },
              {
                "coding": [
                  {
                    "code": "C134030",
                    "system": "http://ncicb.nci.nih.gov/xml/owl/EVS/Thesaurus.owl",
                    "display": "Stability"
                  }
                ]
              }
            ],
            "target": [
              {
                "detailQuantity": {
                  "value": 0.1,
                  "code": "%{WeightToWeight}",
                  "system": "http://unitsofmeasure.org",
                  "unit": "percent WeightToWeight",
                  "comparator": "<="
                }
              }
            ]
          },
          {
            "id": "41e19fa2-f568-443e-8bc1-6b0a6dca9d0c",
            "description": {
              "text": "RRT 2.4 NMT 0.10% w/w"
            },
            "addresses": [
              {
                "coding": [
                  {
                    "code": "C134029",
                    "system": "http://ncicb.nci.nih.gov/xml/owl/EVS/Thesaurus.owl",
                    "display": "Release"
                  }
                ]
              },
              {
                "coding": [
                  {
                    "code": "C134030",
                    "system": "http://ncicb.nci.nih.gov/xml/owl/EVS/Thesaurus.owl",
                    "display": "Stability"
                  }
                ]
              }
            ],
            "target": [
              {
                "detailQuantity": {
                  "value": 0.1,
                  "code": "%{WeightToWeight}",
                  "system": "http://unitsofmeasure.org",
                  "unit": "percent WeightToWeight",
                  "comparator": "<="
                }
              }
            ]
          },
          {
            "id": "e493cb3d-45b6-4463-b9b6-e588c51e032c",
            "description": {
              "text": "RRT 3.41 NMT 0.10% w/w"
            },
            "addresses": [
              {
                "coding": [
                  {
                    "code": "C134029",
                    "system": "http://ncicb.nci.nih.gov/xml/owl/EVS/Thesaurus.owl",
                    "display": "Release"
                  }
                ]
              },
              {
                "coding": [
                  {
                    "code": "C134030",
                    "system": "http://ncicb.nci.nih.gov/xml/owl/EVS/Thesaurus.owl",
                    "display": "Stability"
                  }
                ]
              }
            ],
            "target": [
              {
                "detailQuantity": {
                  "value": 0.2,
                  "code": "%{WeightToWeight}",
                  "system": "http://unitsofmeasure.org",
                  "unit": "percent WeightToWeight",
                  "comparator": "<="
                }
              }
            ]
          }
        ],
        "identifier": [
          {
            "value": "CochinealSpecification"
          }
        ],
        "version": "1.0",
        "title": "Cochineal specification Example",
        "status": "active",
        "subjectReference": {
          "reference": "urn:uuid:278736ef-2ddf-49e4-895c-3a9f34db36cf"
        },
        "date": "2023-12-01"
      },
      "fullUrl": "urn:uuid:37bf5cc0-33bf-478b-b84e-ccb35143ef6e"
    },
    {
      "resource": {
        "resourceType": "SubstanceDefinition",
        "id": "278736ef-2ddf-49e4-895c-3a9f34db36cf",
        "meta": {
          "profile": [
            "http://hl7.org/fhir/us/pq-cmc-fda/StructureDefinition/pqcmc-excipient"
          ]
        },
        "code": [
          {
            "code": {
              "coding": [
                {
                  "system": "http://fdasis.nlm.nih.gov",
                  "code": "TZ8Z31B35M"
                }
              ]
            }
          }
        ],
        "name": [
          {
            "type": {
              "coding": [
                {
                  "code": "C203355",
                  "system": "http://ncicb.nci.nih.gov/xml/owl/EVS/Thesaurus.owl",
                  "display": "GSRS Preferred Term"
                }
              ]
            },
            "name": "Cochineal",
            "preferred": true
          }
        ],
        "identifier": [
          {
            "value": "Cochineal"
          }
        ],
        "classification": [
          {
            "coding": [
              {
                "code": "C48807",
                "system": "http://ncicb.nci.nih.gov/xml/owl/EVS/Thesaurus.owl",
                "display": "Chemical"
              }
            ]
          }
        ],
        "grade": [
          {
            "coding": [
              {
                "code": "C134009",
                "system": "http://ncicb.nci.nih.gov/xml/owl/EVS/Thesaurus.owl",
                "display": "Company Standard"
              }
            ]
          }
        ],
        "sourceMaterial": {
          "type": {
            "coding": [
              {
                "code": "C48807",
                "system": "http://ncicb.nci.nih.gov/xml/owl/EVS/Thesaurus.owl",
                "display": "Chemical"
              }
            ]
          },
          "genus": {
            "text": "Dactylopius"
          },
          "species": {
            "text": "cochineal"
          },
          "countryOfOrigin": [
            {
              "coding": [
                {
                  "code": "TUR",
                  "system": "urn:iso:std:iso:3166",
                  "display": "Turkey"
                }
              ]
            }
          ]
        }
      },
      "fullUrl": "urn:uuid:278736ef-2ddf-49e4-895c-3a9f34db36cf"
    },
    {
      "resource": {
        "resourceType": "Organization",
        "id": "4f3e9af1-306b-4fad-bf04-7881400b266a",
        "meta": {
          "profile": [
            "http://hl7.org/fhir/us/pq-cmc-fda/StructureDefinition/cmc-organization"
          ]
        },
        "identifier": [
          {
            "system": "urn:oid:1.3.6.1.4.1.519.1",
            "value": "143265222",
            "type": {
              "coding": [
                {
                  "code": "C134003",
                  "system": "http://ncicb.nci.nih.gov/xml/owl/EVS/Thesaurus.owl",
                  "display": "DUNS"
                }
              ]
            }
          }
        ],
        "name": "Wunderwerke",
        "contact": [
          {
            "address": {
              "type": "postal",
              "line": [
                "123 Scenic Road"
              ],
              "state": "CT",
              "city": "Bridgeport",
              "country": "USA",
              "postalCode": "65478",
              "text": "Wunderwerke, 123 Scenic Road, CT, Bridgeport, USA 65478"
            }
          }
        ]
      },
      "fullUrl": "urn:uuid:4f3e9af1-306b-4fad-bf04-7881400b266a"
    }
  ]
}
