{
  "resourceType": "Bundle",
  "id": "ControlMaterialsBundle",
  "meta": {
    "profile": [
      "http://hl7.org/fhir/us/pq-cmc-fda/StructureDefinition/cmc-ectd-document-32s23"
    ]
  },
  "type": "document",
  "identifier": {
    "system": "urn:ietf:rfc:3986",
    "value": "urn:uuid:7ce2088d-d281-4e2f-9a25-120a1f9805d1"
  },
  "timestamp": "2023-12-05T01:34:39.503Z",
  "entry": [
    {
      "resource": {
        "resourceType": "Composition",
        "id": "5c0d341e-6e4f-457c-811d-cfaf3eb62ecd",
        "meta": {
          "profile": [
            "http://hl7.org/fhir/us/pq-cmc-fda/StructureDefinition/ectd-composition-32s23"
          ]
        },
        "status": "final",
        "type": {
          "coding": [
            {
              "code": "ich_3.2.s.2.3",
              "system": "http://terminology.hl7.org/temporary-uri/codeSystem/ICH-context-of-use",
              "display": "Control of Materials"
            }
          ]
        },
        "identifier": [
          {
            "value": "materials1"
          }
        ],
        "subject": [
          {
            "reference": "urn:uuid:cd84a8b5-4e96-551c-15c6-c97c943eb38a"
          }
        ],
        "author": [
          {
            "reference": "urn:uuid:49438799-e286-432c-b8d8-68ac77e7f519"
          }
        ],
        "date": "2023-12-05T01:34:39.502Z",
        "title": "Control of Materials Example",
        "section": [
          {
            "code": {
              "coding": [
                {
                  "code": "ich_3.2.s.3.1",
                  "system": "http://terminology.hl7.org/temporary-uri/codeSystem/ICH-context-of-use",
                  "display": "Elucidation of Structure and other Characteristics"
                }
              ]
            },
            "entry": [
              {
                "reference": "urn:uuid:ab241f8c-d21e-4382-a70a-52190dbdf07e"
              }
            ]
          },
          {
            "code": {
              "coding": [
                {
                  "code": "ich_3.2.s.3.1",
                  "system": "http://terminology.hl7.org/temporary-uri/codeSystem/ICH-context-of-use",
                  "display": "Elucidation of Structure and other Characteristics"
                }
              ]
            },
            "entry": [
              {
                "reference": "urn:uuid:a2cba634-a481-4b07-9bd4-62c7ada31e1b"
              }
            ]
          },
          {
            "code": {
              "coding": [
                {
                  "code": "ich_3.2.s.3.1",
                  "system": "http://terminology.hl7.org/temporary-uri/codeSystem/ICH-context-of-use",
                  "display": "Elucidation of Structure and other Characteristics"
                }
              ]
            },
            "entry": [
              {
                "reference": "urn:uuid:5819b223-d3d2-419f-b617-b3a9a3625b89"
              }
            ]
          }
        ]
      },
      "fullUrl": "urn:uuid:5c0d341e-6e4f-457c-811d-cfaf3eb62ecd"
    },
    {
      "resource": {
        "resourceType": "SubstanceDefinition",
        "id": "cd84a8b5-4e96-551c-15c6-c97c943eb38a",
        "meta": {
          "profile": [
            "http://hl7.org/fhir/us/pq-cmc-fda/StructureDefinition/pqcmc-routine-drug-substance"
          ]
        },
        "code": [
          {
            "code": {
              "coding": [
                {
                  "system": "http://fdasis.nlm.nih.gov",
                  "code": "R16CO5Y76E"
                }
              ]
            }
          }
        ],
        "name": [
          {
            "type": {
              "coding": [
                {
                  "code": "C97054",
                  "system": "http://ncicb.nci.nih.gov/xml/owl/EVS/Thesaurus.owl",
                  "display": "Generic Name"
                }
              ]
            },
            "name": "ACETYLSALICYLIC ACID"
          },
          {
            "type": {
              "coding": [
                {
                  "code": "C203355",
                  "system": "http://ncicb.nci.nih.gov/xml/owl/EVS/Thesaurus.owl",
                  "display": "GSRS Preferred Term"
                }
              ]
            },
            "name": "ASPIRIN",
            "preferred": true
          }
        ],
        "identifier": [
          {
            "value": "salicylate"
          }
        ],
        "classification": [
          {
            "coding": [
              {
                "code": "C48807",
                "system": "http://ncicb.nci.nih.gov/xml/owl/EVS/Thesaurus.owl",
                "display": "Chemical"
              }
            ]
          }
        ],
        "grade": [
          {
            "coding": [
              {
                "code": "C134006",
                "system": "http://ncicb.nci.nih.gov/xml/owl/EVS/Thesaurus.owl",
                "display": "USP-NF"
              }
            ]
          }
        ],
        "manufacturer": [
          {
            "reference": "urn:uuid:e99bddfa-c1b5-435b-bbe8-24816b4e23e5"
          }
        ]
      },
      "fullUrl": "urn:uuid:cd84a8b5-4e96-551c-15c6-c97c943eb38a"
    },
    {
      "resource": {
        "resourceType": "Organization",
        "id": "4b565cf3-5353-48af-8cd6-5ccf4e9fd579",
        "meta": {
          "profile": [
            "http://hl7.org/fhir/us/pq-cmc-fda/StructureDefinition/cmc-organization"
          ]
        },
        "identifier": [
          {
            "system": "urn:oid:1.3.6.1.4.1.519.1",
            "type": {
              "coding": [
                {
                  "code": "C134003",
                  "system": "http://ncicb.nci.nih.gov/xml/owl/EVS/Thesaurus.owl",
                  "display": "DUNS"
                }
              ]
            },
            "value": "783452221"
          },
          {
            "system": "urn:oid:2.16.840.1.113883.4.82",
            "type": {
              "coding": [
                {
                  "code": "C134004",
                  "system": "http://ncicb.nci.nih.gov/xml/owl/EVS/Thesaurus.owl",
                  "display": "FEI"
                }
              ]
            },
            "value": "6913973"
          }
        ],
        "name": "Manufacturing Site (J. Jones Research)",
        "contact": [
          {
            "address": {
              "type": "postal",
              "line": [
                "444 Grant Street"
              ],
              "city": "Bedford",
              "state": "NY",
              "country": "USA",
              "postalCode": "15600",
              "text": "Manufacturing Site (J. Jones Research), 444 Grant Street, Bedford, NY, United States"
            }
          }
        ]
      },
      "fullUrl": "urn:uuid:4b565cf3-5353-48af-8cd6-5ccf4e9fd579"
    },
    {
      "resource": {
        "resourceType": "Organization",
        "id": "e99bddfa-c1b5-435b-bbe8-24816b4e23e5",
        "meta": {
          "profile": [
            "http://hl7.org/fhir/us/pq-cmc-fda/StructureDefinition/cmc-organization"
          ]
        },
        "identifier": [
          {
            "system": "urn:oid:1.3.6.1.4.1.519.1",
            "value": "143265222",
            "type": {
              "coding": [
                {
                  "code": "C134003",
                  "system": "http://ncicb.nci.nih.gov/xml/owl/EVS/Thesaurus.owl",
                  "display": "DUNS"
                }
              ]
            }
          },
          {
            "system": "urn:oid:2.16.840.1.113883.4.82",
            "type": {
              "coding": [
                {
                  "code": "C134004",
                  "system": "http://ncicb.nci.nih.gov/xml/owl/EVS/Thesaurus.owl",
                  "display": "FEI"
                }
              ]
            },
            "value": "6981397"
          }
        ],
        "name": "Vidinaid",
        "contact": [
          {
            "address": {
              "type": "postal",
              "line": [
                "100 Stillwater Avenue",
                "Building #2"
              ],
              "city": "Bangor",
              "country": "USA",
              "postalCode": "04401",
              "text": "Vidinaid, 100 Stillwater Avenue, Building #2, Bangor, ME, USA",
              "state": "ME"
            }
          }
        ]
      },
      "fullUrl": "urn:uuid:e99bddfa-c1b5-435b-bbe8-24816b4e23e5"
    },
    {
      "resource": {
        "resourceType": "Organization",
        "id": "d9e7c2f7-0f59-4645-bb6d-5a8dd2425049",
        "meta": {
          "profile": [
            "http://hl7.org/fhir/us/pq-cmc-fda/StructureDefinition/cmc-organization"
          ]
        },
        "identifier": [
          {
            "system": "urn:oid:1.3.6.1.4.1.519.1",
            "type": {
              "coding": [
                {
                  "code": "C134003",
                  "system": "http://ncicb.nci.nih.gov/xml/owl/EVS/Thesaurus.owl",
                  "display": "DUNS"
                }
              ]
            },
            "value": "173265332"
          }
        ],
        "name": "Mega Chem Supply",
        "contact": [
          {
            "address": {
              "type": "postal",
              "line": [
                "350 W Main Street"
              ],
              "state": "NY",
              "city": "Rochester",
              "country": "USA",
              "postalCode": "14608",
              "text": "Mega Chem Supply, 350 W Main Street, Rochester, NY, United States"
            }
          }
        ]
      },
      "fullUrl": "urn:uuid:d9e7c2f7-0f59-4645-bb6d-5a8dd2425049"
    },
    {
      "resource": {
        "resourceType": "SubstanceDefinition",
        "id": "0efb1188-04f0-44ba-bfe7-ca6169ca8703",
        "meta": {
          "profile": [
            "http://hl7.org/fhir/us/pq-cmc-fda/StructureDefinition/pqcmc-excipient"
          ]
        },
        "code": [
          {
            "code": {
              "coding": [
                {
                  "system": "http://fdasis.nlm.nih.gov",
                  "code": "5C69YCD2YJ"
                }
              ]
            }
          }
        ],
        "name": [
          {
            "type": {
              "coding": [
                {
                  "code": "C203355",
                  "system": "http://ncicb.nci.nih.gov/xml/owl/EVS/Thesaurus.owl",
                  "display": "GSRS Preferred Term"
                }
              ]
            },
            "name": "Carrageenan",
            "preferred": true
          }
        ],
        "identifier": [
          {
            "value": "carrageenan"
          }
        ],
        "classification": [
          {
            "coding": [
              {
                "code": "C103206",
                "system": "http://ncicb.nci.nih.gov/xml/owl/EVS/Thesaurus.owl",
                "display": "Structurally Diverse Substance"
              }
            ]
          }
        ],
        "grade": [
          {
            "coding": [
              {
                "code": "C134009",
                "system": "http://ncicb.nci.nih.gov/xml/owl/EVS/Thesaurus.owl",
                "display": "Company Standard"
              }
            ]
          }
        ],
        "manufacturer": [
          {
            "reference": "urn:uuid:4b565cf3-5353-48af-8cd6-5ccf4e9fd579"
          }
        ],
        "sourceMaterial": {
          "type": {
            "coding": [
              {
                "code": "C14258",
                "system": "http://ncicb.nci.nih.gov/xml/owl/EVS/Thesaurus.owl",
                "display": "Plant"
              }
            ]
          },
          "genus": {
            "text": "palmaria"
          },
          "species": {
            "text": "palmata"
          },
          "countryOfOrigin": [
            {
              "coding": [
                {
                  "code": "USA",
                  "system": "urn:iso:std:iso:3166",
                  "display": "United States of America"
                }
              ]
            }
          ]
        }
      },
      "fullUrl": "urn:uuid:0efb1188-04f0-44ba-bfe7-ca6169ca8703"
    },
    {
      "resource": {
        "resourceType": "SubstanceDefinition",
        "id": "fd84a8b5-9e96-451c-a5c6-097c943eb38a",
        "meta": {
          "profile": [
            "http://hl7.org/fhir/us/pq-cmc-fda/StructureDefinition/pqcmc-excipient"
          ]
        },
        "code": [
          {
            "code": {
              "coding": [
                {
                  "system": "http://fdasis.nlm.nih.gov",
                  "code": "XF417D3PSL"
                }
              ]
            }
          }
        ],
        "name": [
          {
            "type": {
              "coding": [
                {
                  "code": "C203355",
                  "system": "http://ncicb.nci.nih.gov/xml/owl/EVS/Thesaurus.owl",
                  "display": "GSRS Preferred Term"
                }
              ]
            },
            "name": "ANHYDROUS CITRIC ACID",
            "preferred": true
          }
        ],
        "identifier": [
          {
            "value": "Citric acid"
          }
        ],
        "classification": [
          {
            "coding": [
              {
                "code": "C48807",
                "system": "http://ncicb.nci.nih.gov/xml/owl/EVS/Thesaurus.owl",
                "display": "Chemical"
              }
            ]
          }
        ],
        "grade": [
          {
            "coding": [
              {
                "code": "C134009",
                "system": "http://ncicb.nci.nih.gov/xml/owl/EVS/Thesaurus.owl",
                "display": "Company Standard"
              }
            ]
          }
        ],
        "manufacturer": [
          {
            "reference": "urn:uuid:e99bddfa-c1b5-435b-bbe8-24816b4e23e5"
          }
        ],
        "supplier": [
          {
            "reference": "urn:uuid:d9e7c2f7-0f59-4645-bb6d-5a8dd2425049"
          }
        ],
        "sourceMaterial": {
          "type": {
            "coding": [
              {
                "code": "C48807",
                "system": "http://ncicb.nci.nih.gov/xml/owl/EVS/Thesaurus.owl",
                "display": "Chemical"
              }
            ]
          }
        }
      },
      "fullUrl": "urn:uuid:fd84a8b5-9e96-451c-a5c6-097c943eb38a"
    },
    {
      "resource": {
        "resourceType": "SubstanceDefinition",
        "id": "d3a11b25-e160-4688-b807-6383364096fd",
        "meta": {
          "profile": [
            "http://hl7.org/fhir/us/pq-cmc-fda/StructureDefinition/pqcmc-excipient"
          ]
        },
        "code": [
          {
            "code": {
              "coding": [
                {
                  "system": "http://fdasis.nlm.nih.gov",
                  "code": "059QF0KO0R"
                }
              ]
            }
          }
        ],
        "name": [
          {
            "type": {
              "coding": [
                {
                  "code": "C203355",
                  "system": "http://ncicb.nci.nih.gov/xml/owl/EVS/Thesaurus.owl",
                  "display": "GSRS Preferred Term"
                }
              ]
            },
            "name": "WATER",
            "preferred": true
          }
        ],
        "identifier": [
          {
            "value": "water"
          }
        ],
        "classification": [
          {
            "coding": [
              {
                "code": "C48807",
                "system": "http://ncicb.nci.nih.gov/xml/owl/EVS/Thesaurus.owl",
                "display": "Chemical"
              }
            ]
          }
        ],
        "grade": [
          {
            "coding": [
              {
                "code": "C176793",
                "system": "http://ncicb.nci.nih.gov/xml/owl/EVS/Thesaurus.owl",
                "display": "BP"
              }
            ]
          }
        ],
        "manufacturer": [
          {
            "reference": "urn:uuid:e99bddfa-c1b5-435b-bbe8-24816b4e23e5"
          }
        ],
        "supplier": [
          {
            "reference": "urn:uuid:d9e7c2f7-0f59-4645-bb6d-5a8dd2425049"
          }
        ],
        "sourceMaterial": {
          "type": {
            "coding": [
              {
                "code": "C48807",
                "system": "http://ncicb.nci.nih.gov/xml/owl/EVS/Thesaurus.owl",
                "display": "Chemical"
              }
            ]
          }
        }
      },
      "fullUrl": "urn:uuid:d3a11b25-e160-4688-b807-6383364096fd"
    },
    {
      "resource": {
        "resourceType": "PlanDefinition",
        "id": "ab241f8c-d21e-4382-a70a-52190dbdf07e",
        "meta": {
          "profile": [
            "http://hl7.org/fhir/us/pq-cmc-fda/StructureDefinition/pqcmc-quality-specification"
          ]
        },
        "extension": [
          {
            "url": "http://hl7.org/fhir/us/pq-cmc-fda/StructureDefinition/pq-specification-status-extension",
            "valueCodeableConcept": {
              "coding": [
                {
                  "code": "C48660",
                  "system": "http://ncicb.nci.nih.gov/xml/owl/EVS/Thesaurus.owl",
                  "display": "Not Applicable"
                }
              ]
            }
          }
        ],
        "type": {
          "coding": [
            {
              "code": "workflow-definition",
              "system": "http://terminology.hl7.org/CodeSystem/plan-definition-type",
              "display": "Workflow Definition"
            },
            {
              "code": "C133931",
              "system": "http://ncicb.nci.nih.gov/xml/owl/EVS/Thesaurus.owl",
              "display": "Raw Materials/Excipients/Intermediates/Reagents"
            }
          ]
        },
        "action": [
          {
            "reason": [
              {
                "extension": [
                  {
                    "url": "http://hl7.org/fhir/us/pq-cmc-fda/StructureDefinition/pq-hierarchical-level-extension",
                    "valuePositiveInt": 1
                  }
                ],
                "coding": [
                  {
                    "code": "C138993",
                    "system": "http://ncicb.nci.nih.gov/xml/owl/EVS/Thesaurus.owl",
                    "display": "Identification"
                  }
                ]
              }
            ],
            "documentation": [
              {
                "type": "documentation",
                "label": "EX-TEST-001"
              }
            ],
            "id": "428fa917-a7d3-4515-9b48-c9366acd673a",
            "prefix": "Single Stage",
            "title": "Identification",
            "code": {
              "coding": [
                {
                  "code": "C96103",
                  "system": "http://ncicb.nci.nih.gov/xml/owl/EVS/Thesaurus.owl",
                  "display": "Proprietary"
                }
              ],
              "text": "Visual"
            },
            "action": [
              {
                "title": "Identification A",
                "goalId": [
                  "e512320e-0ffb-47d9-922a-5415aaa4cb30"
                ]
              },
              {
                "title": "Identification B",
                "goalId": [
                  "2c6e465b-4dec-4a09-9dc5-58c480009d27"
                ]
              },
              {
                "title": "Identification C",
                "goalId": [
                  "c233a5f7-37e2-4b2b-9f04-cf1b25534865"
                ]
              },
              {
                "title": "Identification D",
                "goalId": [
                  "c759888d-1eac-4a12-aa9b-403f395f2c18"
                ]
              }
            ]
          },
          {
            "reason": [
              {
                "extension": [
                  {
                    "url": "http://hl7.org/fhir/us/pq-cmc-fda/StructureDefinition/pq-hierarchical-level-extension",
                    "valuePositiveInt": 1
                  }
                ],
                "coding": [
                  {
                    "code": "C134256",
                    "system": "http://ncicb.nci.nih.gov/xml/owl/EVS/Thesaurus.owl",
                    "display": "Microbial Limits"
                  }
                ]
              }
            ],
            "documentation": [
              {
                "type": "documentation",
                "label": "EX-TEST-002"
              }
            ],
            "id": "f7cbb73f-4220-4987-b498-c049230091ea",
            "prefix": "Single Stage",
            "title": "Microbial Limits",
            "code": {
              "coding": [
                {
                  "code": "C96103",
                  "system": "http://ncicb.nci.nih.gov/xml/owl/EVS/Thesaurus.owl",
                  "display": "Proprietary"
                }
              ],
              "text": "Visual"
            },
            "action": [
              {
                "title": "Total Bacterial Count",
                "goalId": [
                  "66d4035c-633a-49b1-b974-e3171911f44a"
                ]
              },
              {
                "title": "Salmonella",
                "goalId": [
                  "95bf9d43-f337-4905-9c50-788b69d00843"
                ]
              },
              {
                "title": "Escherichia Coli",
                "goalId": [
                  "4e475e2c-c235-4433-b1e4-201a17e45796"
                ]
              }
            ]
          },
          {
            "reason": [
              {
                "extension": [
                  {
                    "url": "http://hl7.org/fhir/us/pq-cmc-fda/StructureDefinition/pq-hierarchical-level-extension",
                    "valuePositiveInt": 1
                  }
                ],
                "coding": [
                  {
                    "code": "C204971",
                    "system": "http://ncicb.nci.nih.gov/xml/owl/EVS/Thesaurus.owl",
                    "display": "Impurity"
                  }
                ]
              },
              {
                "extension": [
                  {
                    "url": "http://hl7.org/fhir/us/pq-cmc-fda/StructureDefinition/pq-hierarchical-level-extension",
                    "valuePositiveInt": 2
                  }
                ],
                "coding": [
                  {
                    "code": "C205014",
                    "system": "http://ncicb.nci.nih.gov/xml/owl/EVS/Thesaurus.owl",
                    "display": "Elemental Impurity"
                  }
                ]
              }
            ],
            "documentation": [
              {
                "type": "documentation",
                "label": "EX-TEST-003"
              }
            ],
            "id": "f5f8221c-f9ec-4b47-8ec7-90ff44f7388c",
            "prefix": "Single Stage",
            "title": "Elemental Impurities",
            "code": {
              "coding": [
                {
                  "code": "C96103",
                  "system": "http://ncicb.nci.nih.gov/xml/owl/EVS/Thesaurus.owl",
                  "display": "Proprietary"
                }
              ],
              "text": "UV"
            },
            "action": [
              {
                "title": "Cadmium (Cd)",
                "goalId": [
                  "af4ec6c3-4590-43f7-92e0-c8dae0e76e1f"
                ]
              },
              {
                "title": "Mercury (Hg)",
                "goalId": [
                  "b00cb099-5fd8-4ef4-b05b-c1c7c4cd4c73"
                ]
              },
              {
                "title": "Arsenic (As)",
                "goalId": [
                  "464f3063-0a4b-4408-9f4a-d6c0b8170097"
                ]
              },
              {
                "title": "Lead (Pb)",
                "goalId": [
                  "03fbc16c-d4d4-40ac-8689-448bda831dac"
                ]
              }
            ]
          },
          {
            "reason": [
              {
                "extension": [
                  {
                    "url": "http://hl7.org/fhir/us/pq-cmc-fda/StructureDefinition/pq-hierarchical-level-extension",
                    "valuePositiveInt": 1
                  }
                ],
                "coding": [
                  {
                    "code": "C204971",
                    "system": "http://ncicb.nci.nih.gov/xml/owl/EVS/Thesaurus.owl",
                    "display": "Impurity"
                  }
                ]
              },
              {
                "extension": [
                  {
                    "url": "http://hl7.org/fhir/us/pq-cmc-fda/StructureDefinition/pq-hierarchical-level-extension",
                    "valuePositiveInt": 2
                  }
                ],
                "coding": [
                  {
                    "code": "C134002",
                    "system": "http://ncicb.nci.nih.gov/xml/owl/EVS/Thesaurus.owl",
                    "display": "Residual Solvent"
                  }
                ]
              }
            ],
            "documentation": [
              {
                "type": "documentation",
                "label": "EX-TEST-004"
              }
            ],
            "id": "37b44e91-529a-4d87-843b-ec3dd172c09f",
            "prefix": "Single Stage",
            "title": "Residual Solvents",
            "code": {
              "coding": [
                {
                  "code": "C96103",
                  "system": "http://ncicb.nci.nih.gov/xml/owl/EVS/Thesaurus.owl",
                  "display": "Proprietary"
                }
              ],
              "text": "Visual"
            },
            "goalId": [
              "28aba010-126e-4c47-8611-367cdacdd87e"
            ]
          },
          {
            "reason": [
              {
                "extension": [
                  {
                    "url": "http://hl7.org/fhir/us/pq-cmc-fda/StructureDefinition/pq-hierarchical-level-extension",
                    "valuePositiveInt": 1
                  }
                ],
                "coding": [
                  {
                    "code": "C204971",
                    "system": "http://ncicb.nci.nih.gov/xml/owl/EVS/Thesaurus.owl",
                    "display": "Impurity"
                  }
                ]
              }
            ],
            "documentation": [
              {
                "type": "documentation",
                "label": "EX-TEST-005"
              }
            ],
            "id": "25a64081-a0c2-4d72-8a48-538f81fcc35f",
            "prefix": "Single Stage",
            "title": "Impurity: Insoluble Matter",
            "code": {
              "coding": [
                {
                  "code": "C96103",
                  "system": "http://ncicb.nci.nih.gov/xml/owl/EVS/Thesaurus.owl",
                  "display": "Proprietary"
                }
              ],
              "text": "Visual"
            },
            "goalId": [
              "4b3aa353-3bc7-463f-b4c2-defd041da2c7"
            ]
          },
          {
            "reason": [
              {
                "extension": [
                  {
                    "url": "http://hl7.org/fhir/us/pq-cmc-fda/StructureDefinition/pq-hierarchical-level-extension",
                    "valuePositiveInt": 1
                  }
                ],
                "coding": [
                  {
                    "code": "C60821",
                    "system": "http://ncicb.nci.nih.gov/xml/owl/EVS/Thesaurus.owl",
                    "display": "Solubility"
                  }
                ]
              }
            ],
            "documentation": [
              {
                "type": "documentation",
                "label": "EX-TEST-006"
              }
            ],
            "id": "055a79d2-3f6b-49ec-a129-6feac5c33812",
            "prefix": "Single Stage",
            "title": "Solubility in H2O",
            "code": {
              "coding": [
                {
                  "code": "C96103",
                  "system": "http://ncicb.nci.nih.gov/xml/owl/EVS/Thesaurus.owl",
                  "display": "Proprietary"
                }
              ],
              "text": "Visual"
            },
            "goalId": [
              "8125f603-96e7-4f3e-8b13-c15c5870e6e6"
            ]
          }
        ],
        "identifier": [
          {
            "value": "RawCitricacid"
          }
        ],
        "version": "1.0",
        "title": "Raw Material (Carrageenan) Specification Example",
        "status": "active",
        "subjectReference": {
          "reference": "urn:uuid:0efb1188-04f0-44ba-bfe7-ca6169ca8703"
        },
        "date": "2023-11-28",
        "goal": [
          {
            "id": "e512320e-0ffb-47d9-922a-5415aaa4cb30",
            "description": {
              "text": "Viscous upon cooling"
            },
            "addresses": [
              {
                "coding": [
                  {
                    "code": "C134029",
                    "system": "http://ncicb.nci.nih.gov/xml/owl/EVS/Thesaurus.owl",
                    "display": "Release"
                  }
                ]
              },
              {
                "coding": [
                  {
                    "code": "C134030",
                    "system": "http://ncicb.nci.nih.gov/xml/owl/EVS/Thesaurus.owl",
                    "display": "Stability"
                  }
                ]
              }
            ],
            "target": [
              {
                "detailString": "Viscous upon cooling"
              }
            ]
          },
          {
            "id": "2c6e465b-4dec-4a09-9dc5-58c480009d27",
            "description": {
              "text": "Kappa, iota or lambda"
            },
            "addresses": [
              {
                "coding": [
                  {
                    "code": "C134029",
                    "system": "http://ncicb.nci.nih.gov/xml/owl/EVS/Thesaurus.owl",
                    "display": "Release"
                  }
                ]
              },
              {
                "coding": [
                  {
                    "code": "C134030",
                    "system": "http://ncicb.nci.nih.gov/xml/owl/EVS/Thesaurus.owl",
                    "display": "Stability"
                  }
                ]
              }
            ],
            "target": [
              {
                "detailString": "Kappa, iota or Lambda"
              }
            ]
          },
          {
            "id": "c233a5f7-37e2-4b2b-9f04-cf1b25534865",
            "description": {
              "text": "Blue, stringy precipitate forms"
            },
            "addresses": [
              {
                "coding": [
                  {
                    "code": "C134029",
                    "system": "http://ncicb.nci.nih.gov/xml/owl/EVS/Thesaurus.owl",
                    "display": "Release"
                  }
                ]
              },
              {
                "coding": [
                  {
                    "code": "C134030",
                    "system": "http://ncicb.nci.nih.gov/xml/owl/EVS/Thesaurus.owl",
                    "display": "Stability"
                  }
                ]
              }
            ],
            "target": [
              {
                "detailString": "Blue stringy precipitate forms"
              }
            ]
          },
          {
            "id": "c759888d-1eac-4a12-aa9b-403f395f2c18",
            "description": {
              "text": "FTIR matches standard"
            },
            "addresses": [
              {
                "coding": [
                  {
                    "code": "C134029",
                    "system": "http://ncicb.nci.nih.gov/xml/owl/EVS/Thesaurus.owl",
                    "display": "Release"
                  }
                ]
              },
              {
                "coding": [
                  {
                    "code": "C134030",
                    "system": "http://ncicb.nci.nih.gov/xml/owl/EVS/Thesaurus.owl",
                    "display": "Stability"
                  }
                ]
              }
            ],
            "target": [
              {
                "detailString": "FTIR matches standard"
              }
            ]
          },
          {
            "id": "66d4035c-633a-49b1-b974-e3171911f44a",
            "description": {
              "text": "max 200 cfu/g"
            },
            "addresses": [
              {
                "coding": [
                  {
                    "code": "C134029",
                    "system": "http://ncicb.nci.nih.gov/xml/owl/EVS/Thesaurus.owl",
                    "display": "Release"
                  }
                ]
              },
              {
                "coding": [
                  {
                    "code": "C134030",
                    "system": "http://ncicb.nci.nih.gov/xml/owl/EVS/Thesaurus.owl",
                    "display": "Stability"
                  }
                ]
              }
            ],
            "target": [
              {
                "detailQuantity": {
                  "value": 200,
                  "code": "[CFU]",
                  "system": "http://unitsofmeasure.org",
                  "unit": "colony forming unit",
                  "comparator": "<="
                }
              }
            ]
          },
          {
            "id": "95bf9d43-f337-4905-9c50-788b69d00843",
            "description": {
              "text": "Negative"
            },
            "addresses": [
              {
                "coding": [
                  {
                    "code": "C134029",
                    "system": "http://ncicb.nci.nih.gov/xml/owl/EVS/Thesaurus.owl",
                    "display": "Release"
                  }
                ]
              },
              {
                "coding": [
                  {
                    "code": "C134030",
                    "system": "http://ncicb.nci.nih.gov/xml/owl/EVS/Thesaurus.owl",
                    "display": "Stability"
                  }
                ]
              }
            ],
            "target": [
              {
                "detailString": "Negative"
              }
            ]
          },
          {
            "id": "4e475e2c-c235-4433-b1e4-201a17e45796",
            "description": {
              "text": "Negative"
            },
            "addresses": [
              {
                "coding": [
                  {
                    "code": "C134029",
                    "system": "http://ncicb.nci.nih.gov/xml/owl/EVS/Thesaurus.owl",
                    "display": "Release"
                  }
                ]
              },
              {
                "coding": [
                  {
                    "code": "C134030",
                    "system": "http://ncicb.nci.nih.gov/xml/owl/EVS/Thesaurus.owl",
                    "display": "Stability"
                  }
                ]
              }
            ],
            "target": [
              {
                "detailString": "Negative"
              }
            ]
          },
          {
            "id": "af4ec6c3-4590-43f7-92e0-c8dae0e76e1f",
            "description": {
              "text": "As Reported"
            },
            "addresses": [
              {
                "coding": [
                  {
                    "code": "C134029",
                    "system": "http://ncicb.nci.nih.gov/xml/owl/EVS/Thesaurus.owl",
                    "display": "Release"
                  }
                ]
              },
              {
                "coding": [
                  {
                    "code": "C134030",
                    "system": "http://ncicb.nci.nih.gov/xml/owl/EVS/Thesaurus.owl",
                    "display": "Stability"
                  }
                ]
              }
            ],
            "target": [
              {
                "detailString": "As Reported"
              }
            ]
          },
          {
            "id": "b00cb099-5fd8-4ef4-b05b-c1c7c4cd4c73",
            "description": {
              "text": "As Reported"
            },
            "addresses": [
              {
                "coding": [
                  {
                    "code": "C134029",
                    "system": "http://ncicb.nci.nih.gov/xml/owl/EVS/Thesaurus.owl",
                    "display": "Release"
                  }
                ]
              },
              {
                "coding": [
                  {
                    "code": "C134030",
                    "system": "http://ncicb.nci.nih.gov/xml/owl/EVS/Thesaurus.owl",
                    "display": "Stability"
                  }
                ]
              }
            ],
            "target": [
              {
                "detailString": "As Reported"
              }
            ]
          },
          {
            "id": "464f3063-0a4b-4408-9f4a-d6c0b8170097",
            "description": {
              "text": "<= 3 ppm"
            },
            "addresses": [
              {
                "coding": [
                  {
                    "code": "C134029",
                    "system": "http://ncicb.nci.nih.gov/xml/owl/EVS/Thesaurus.owl",
                    "display": "Release"
                  }
                ]
              },
              {
                "coding": [
                  {
                    "code": "C134030",
                    "system": "http://ncicb.nci.nih.gov/xml/owl/EVS/Thesaurus.owl",
                    "display": "Stability"
                  }
                ]
              }
            ],
            "target": [
              {
                "detailQuantity": {
                  "value": 3,
                  "code": "[ppm]",
                  "system": "http://unitsofmeasure.org",
                  "unit": "part per million",
                  "comparator": "<="
                }
              }
            ]
          },
          {
            "id": "03fbc16c-d4d4-40ac-8689-448bda831dac",
            "description": {
              "text": "<= 10 ppm"
            },
            "addresses": [
              {
                "coding": [
                  {
                    "code": "C134029",
                    "system": "http://ncicb.nci.nih.gov/xml/owl/EVS/Thesaurus.owl",
                    "display": "Release"
                  }
                ]
              },
              {
                "coding": [
                  {
                    "code": "C134030",
                    "system": "http://ncicb.nci.nih.gov/xml/owl/EVS/Thesaurus.owl",
                    "display": "Stability"
                  }
                ]
              }
            ],
            "target": [
              {
                "detailQuantity": {
                  "value": 10,
                  "code": "[ppm]",
                  "system": "http://unitsofmeasure.org",
                  "unit": "part per million",
                  "comparator": "<="
                }
              }
            ]
          },
          {
            "id": "28aba010-126e-4c47-8611-367cdacdd87e",
            "description": {
              "text": "As Reported"
            },
            "addresses": [
              {
                "coding": [
                  {
                    "code": "C134029",
                    "system": "http://ncicb.nci.nih.gov/xml/owl/EVS/Thesaurus.owl",
                    "display": "Release"
                  }
                ]
              },
              {
                "coding": [
                  {
                    "code": "C134030",
                    "system": "http://ncicb.nci.nih.gov/xml/owl/EVS/Thesaurus.owl",
                    "display": "Stability"
                  }
                ]
              }
            ],
            "target": [
              {
                "detailString": "As Reported"
              }
            ]
          },
          {
            "id": "4b3aa353-3bc7-463f-b4c2-defd041da2c7",
            "description": {
              "text": "<= 2.0%"
            },
            "addresses": [
              {
                "coding": [
                  {
                    "code": "C134029",
                    "system": "http://ncicb.nci.nih.gov/xml/owl/EVS/Thesaurus.owl",
                    "display": "Release"
                  }
                ]
              },
              {
                "coding": [
                  {
                    "code": "C134030",
                    "system": "http://ncicb.nci.nih.gov/xml/owl/EVS/Thesaurus.owl",
                    "display": "Stability"
                  }
                ]
              }
            ],
            "target": [
              {
                "detailQuantity": {
                  "value": 2,
                  "code": "%",
                  "system": "http://unitsofmeasure.org",
                  "unit": "percent",
                  "comparator": "<="
                }
              }
            ]
          },
          {
            "id": "8125f603-96e7-4f3e-8b13-c15c5870e6e6",
            "description": {
              "text": "<30ml H2O @ 25C"
            },
            "addresses": [
              {
                "coding": [
                  {
                    "code": "C134029",
                    "system": "http://ncicb.nci.nih.gov/xml/owl/EVS/Thesaurus.owl",
                    "display": "Release"
                  }
                ]
              },
              {
                "coding": [
                  {
                    "code": "C134030",
                    "system": "http://ncicb.nci.nih.gov/xml/owl/EVS/Thesaurus.owl",
                    "display": "Stability"
                  }
                ]
              }
            ],
            "target": [
              {
                "detailQuantity": {
                  "value": 30,
                  "code": "mL",
                  "system": "http://unitsofmeasure.org",
                  "unit": "milliliter",
                  "comparator": "<="
                }
              },
              {
                "detailQuantity": {
                  "value": 25,
                  "code": "Cel",
                  "system": "http://unitsofmeasure.org",
                  "unit": "degree Celsius",
                  "comparator": "<="
                }
              }
            ]
          }
        ]
      },
      "fullUrl": "urn:uuid:ab241f8c-d21e-4382-a70a-52190dbdf07e"
    },
    {
      "resource": {
        "resourceType": "PlanDefinition",
        "id": "a2cba634-a481-4b07-9bd4-62c7ada31e1b",
        "meta": {
          "profile": [
            "http://hl7.org/fhir/us/pq-cmc-fda/StructureDefinition/pqcmc-quality-specification"
          ]
        },
        "extension": [
          {
            "url": "http://hl7.org/fhir/us/pq-cmc-fda/StructureDefinition/pq-specification-status-extension",
            "valueCodeableConcept": {
              "coding": [
                {
                  "code": "C48660",
                  "system": "http://ncicb.nci.nih.gov/xml/owl/EVS/Thesaurus.owl",
                  "display": "Not Applicable"
                }
              ]
            }
          }
        ],
        "type": {
          "coding": [
            {
              "code": "workflow-definition",
              "system": "http://terminology.hl7.org/CodeSystem/plan-definition-type",
              "display": "Workflow Definition"
            },
            {
              "code": "C133931",
              "system": "http://ncicb.nci.nih.gov/xml/owl/EVS/Thesaurus.owl",
              "display": "Raw Materials/Excipients/Intermediates/Reagents"
            }
          ]
        },
        "action": [
          {
            "reason": [
              {
                "extension": [
                  {
                    "url": "http://hl7.org/fhir/us/pq-cmc-fda/StructureDefinition/pq-hierarchical-level-extension",
                    "valuePositiveInt": 1
                  }
                ],
                "coding": [
                  {
                    "code": "C205026",
                    "system": "http://ncicb.nci.nih.gov/xml/owl/EVS/Thesaurus.owl",
                    "display": "Organoleptic"
                  }
                ]
              },
              {
                "extension": [
                  {
                    "url": "http://hl7.org/fhir/us/pq-cmc-fda/StructureDefinition/pq-hierarchical-level-extension",
                    "valuePositiveInt": 2
                  }
                ],
                "coding": [
                  {
                    "code": "C138990",
                    "system": "http://ncicb.nci.nih.gov/xml/owl/EVS/Thesaurus.owl",
                    "display": "Description/Appearance"
                  }
                ]
              }
            ],
            "documentation": [
              {
                "type": "documentation",
                "label": "EX-TEST-101"
              }
            ],
            "id": "fdf5e37f-ae97-48c1-9809-33aebff37199",
            "prefix": "Single Stage",
            "title": "Appearance",
            "code": {
              "coding": [
                {
                  "code": "C96103",
                  "system": "http://ncicb.nci.nih.gov/xml/owl/EVS/Thesaurus.owl",
                  "display": "Proprietary"
                }
              ],
              "text": "Visual"
            },
            "goalId": [
              "9bc2bfdf-c9b1-440a-bafe-89f2674341d4"
            ]
          },
          {
            "reason": [
              {
                "extension": [
                  {
                    "url": "http://hl7.org/fhir/us/pq-cmc-fda/StructureDefinition/pq-hierarchical-level-extension",
                    "valuePositiveInt": 1
                  }
                ],
                "coding": [
                  {
                    "code": "C138993",
                    "system": "http://ncicb.nci.nih.gov/xml/owl/EVS/Thesaurus.owl",
                    "display": "Identification"
                  }
                ]
              }
            ],
            "documentation": [
              {
                "type": "documentation",
                "label": "EX-TEST-102"
              }
            ],
            "id": "f6da4e9e-4954-4fd1-a78a-b297fea64a6f",
            "prefix": "Single Stage",
            "title": "Identification",
            "code": {
              "coding": [
                {
                  "code": "C96103",
                  "system": "http://ncicb.nci.nih.gov/xml/owl/EVS/Thesaurus.owl",
                  "display": "Proprietary"
                }
              ],
              "text": "FTIR"
            },
            "goalId": [
              "59e2c94a-d383-4776-9b00-3b97b0741c9a"
            ]
          },
          {
            "reason": [
              {
                "extension": [
                  {
                    "url": "http://hl7.org/fhir/us/pq-cmc-fda/StructureDefinition/pq-hierarchical-level-extension",
                    "valuePositiveInt": 1
                  }
                ],
                "coding": [
                  {
                    "code": "C205029",
                    "system": "http://ncicb.nci.nih.gov/xml/owl/EVS/Thesaurus.owl",
                    "display": "pH"
                  }
                ]
              }
            ],
            "documentation": [
              {
                "type": "documentation",
                "label": "EX-TEST-103"
              }
            ],
            "id": "a5beeff6-dcc1-4b42-8ea1-76dea4b0da1d",
            "prefix": "Single Stage",
            "title": "[pH]",
            "code": {
              "coding": [
                {
                  "code": "C96103",
                  "system": "http://ncicb.nci.nih.gov/xml/owl/EVS/Thesaurus.owl",
                  "display": "Proprietary"
                }
              ],
              "text": "Visual"
            },
            "goalId": [
              "a2ed2d13-e96a-4d7b-b825-c69afd334cf7"
            ]
          },
          {
            "reason": [
              {
                "extension": [
                  {
                    "url": "http://hl7.org/fhir/us/pq-cmc-fda/StructureDefinition/pq-hierarchical-level-extension",
                    "valuePositiveInt": 1
                  }
                ],
                "coding": [
                  {
                    "code": "C134276",
                    "system": "http://ncicb.nci.nih.gov/xml/owl/EVS/Thesaurus.owl",
                    "display": "Residue on Ignition"
                  }
                ]
              }
            ],
            "documentation": [
              {
                "type": "documentation",
                "label": "USP <281>"
              }
            ],
            "id": "aad4c3ce-985d-45ab-9d00-c2c01ca3813f",
            "prefix": "Single Stage",
            "title": "Residue on Ignition",
            "code": {
              "coding": [
                {
                  "code": "C96102",
                  "system": "http://ncicb.nci.nih.gov/xml/owl/EVS/Thesaurus.owl",
                  "display": "Compendial"
                }
              ],
              "text": "Visual"
            },
            "goalId": [
              "e046aab8-b10f-4e13-89e6-bfa869a90b38"
            ]
          }
        ],
        "goal": [
          {
            "id": "9bc2bfdf-c9b1-440a-bafe-89f2674341d4",
            "description": {
              "text": "White Solid"
            },
            "addresses": [
              {
                "coding": [
                  {
                    "code": "C134029",
                    "system": "http://ncicb.nci.nih.gov/xml/owl/EVS/Thesaurus.owl",
                    "display": "Release"
                  }
                ]
              },
              {
                "coding": [
                  {
                    "code": "C134030",
                    "system": "http://ncicb.nci.nih.gov/xml/owl/EVS/Thesaurus.owl",
                    "display": "Stability"
                  }
                ]
              }
            ],
            "target": [
              {
                "detailString": "White solid"
              }
            ]
          },
          {
            "id": "59e2c94a-d383-4776-9b00-3b97b0741c9a",
            "description": {
              "text": "IR spectrum conforms to reference standard"
            },
            "addresses": [
              {
                "coding": [
                  {
                    "code": "C134029",
                    "system": "http://ncicb.nci.nih.gov/xml/owl/EVS/Thesaurus.owl",
                    "display": "Release"
                  }
                ]
              },
              {
                "coding": [
                  {
                    "code": "C134030",
                    "system": "http://ncicb.nci.nih.gov/xml/owl/EVS/Thesaurus.owl",
                    "display": "Stability"
                  }
                ]
              }
            ],
            "target": [
              {
                "detailString": "IR spectrum conforms to reference standard"
              }
            ]
          },
          {
            "target": [
              {
                "modifierExtension": [
                  {
                    "url": "http://hl7.org/fhir/us/pq-cmc-fda/StructureDefinition/pq-target-range",
                    "extension": [
                      {
                        "url": "low",
                        "valueQuantity": {
                          "value": 3.4,
                          "code": "[pH]",
                          "system": "http://unitsofmeasure.org",
                          "unit": "[pH]",
                          "comparator": ">="
                        }
                      },
                      {
                        "url": "high",
                        "valueQuantity": {
                          "value": 4.3,
                          "code": "[pH]",
                          "system": "http://unitsofmeasure.org",
                          "unit": "[pH]",
                          "comparator": "<="
                        }
                      }
                    ]
                  }
                ]
              }
            ],
            "id": "a2ed2d13-e96a-4d7b-b825-c69afd334cf7",
            "description": {
              "text": "pH 3.4-4.3"
            },
            "addresses": [
              {
                "coding": [
                  {
                    "code": "C134029",
                    "system": "http://ncicb.nci.nih.gov/xml/owl/EVS/Thesaurus.owl",
                    "display": "Release"
                  }
                ]
              },
              {
                "coding": [
                  {
                    "code": "C134030",
                    "system": "http://ncicb.nci.nih.gov/xml/owl/EVS/Thesaurus.owl",
                    "display": "Stability"
                  }
                ]
              }
            ]
          },
          {
            "id": "e046aab8-b10f-4e13-89e6-bfa869a90b38",
            "description": {
              "text": "residue <= 0.21%"
            },
            "addresses": [
              {
                "coding": [
                  {
                    "code": "C134029",
                    "system": "http://ncicb.nci.nih.gov/xml/owl/EVS/Thesaurus.owl",
                    "display": "Release"
                  }
                ]
              },
              {
                "coding": [
                  {
                    "code": "C134030",
                    "system": "http://ncicb.nci.nih.gov/xml/owl/EVS/Thesaurus.owl",
                    "display": "Stability"
                  }
                ]
              }
            ],
            "target": [
              {
                "detailQuantity": {
                  "value": 0.21,
                  "code": "%",
                  "system": "http://unitsofmeasure.org",
                  "unit": "percent",
                  "comparator": "<="
                }
              }
            ]
          }
        ],
        "identifier": [
          {
            "value": "CitricAcidSpecification"
          }
        ],
        "version": "1.0",
        "title": "Citric acid specification Example",
        "status": "active",
        "subjectReference": {
          "reference": "urn:uuid:fd84a8b5-9e96-451c-a5c6-097c943eb38a"
        },
        "date": "2023-12-01"
      },
      "fullUrl": "urn:uuid:a2cba634-a481-4b07-9bd4-62c7ada31e1b"
    },
    {
      "resource": {
        "resourceType": "PlanDefinition",
        "id": "5819b223-d3d2-419f-b617-b3a9a3625b89",
        "meta": {
          "profile": [
            "http://hl7.org/fhir/us/pq-cmc-fda/StructureDefinition/pqcmc-quality-specification"
          ]
        },
        "extension": [
          {
            "url": "http://hl7.org/fhir/us/pq-cmc-fda/StructureDefinition/pq-specification-status-extension",
            "valueCodeableConcept": {
              "coding": [
                {
                  "code": "C48660",
                  "system": "http://ncicb.nci.nih.gov/xml/owl/EVS/Thesaurus.owl",
                  "display": "Not Applicable"
                }
              ]
            }
          }
        ],
        "type": {
          "coding": [
            {
              "code": "workflow-definition",
              "system": "http://terminology.hl7.org/CodeSystem/plan-definition-type",
              "display": "Workflow Definition"
            },
            {
              "code": "C133931",
              "system": "http://ncicb.nci.nih.gov/xml/owl/EVS/Thesaurus.owl",
              "display": "Raw Materials/Excipients/Intermediates/Reagents"
            }
          ]
        },
        "action": [
          {
            "reason": [
              {
                "extension": [
                  {
                    "url": "http://hl7.org/fhir/us/pq-cmc-fda/StructureDefinition/pq-hierarchical-level-extension",
                    "valuePositiveInt": 1
                  }
                ],
                "coding": [
                  {
                    "code": "C205026",
                    "system": "http://ncicb.nci.nih.gov/xml/owl/EVS/Thesaurus.owl",
                    "display": "Organoleptic"
                  }
                ]
              },
              {
                "extension": [
                  {
                    "url": "http://hl7.org/fhir/us/pq-cmc-fda/StructureDefinition/pq-hierarchical-level-extension",
                    "valuePositiveInt": 2
                  }
                ],
                "coding": [
                  {
                    "code": "C134262",
                    "system": "http://ncicb.nci.nih.gov/xml/owl/EVS/Thesaurus.owl",
                    "display": "Color of Solution"
                  }
                ]
              }
            ],
            "documentation": [
              {
                "type": "documentation",
                "label": "EX-TEST-201"
              }
            ],
            "id": "3668eb6f-797c-4325-8f41-160c951b4adc",
            "prefix": "Single Stage",
            "title": "Color degree",
            "code": {
              "coding": [
                {
                  "code": "C96103",
                  "system": "http://ncicb.nci.nih.gov/xml/owl/EVS/Thesaurus.owl",
                  "display": "Proprietary"
                }
              ],
              "text": "Colorimetry"
            },
            "goalId": [
              "1779ee35-8725-4322-ae82-89ed499f6864"
            ]
          },
          {
            "reason": [
              {
                "extension": [
                  {
                    "url": "http://hl7.org/fhir/us/pq-cmc-fda/StructureDefinition/pq-hierarchical-level-extension",
                    "valuePositiveInt": 1
                  }
                ],
                "coding": [
                  {
                    "code": "C74723",
                    "system": "http://ncicb.nci.nih.gov/xml/owl/EVS/Thesaurus.owl",
                    "display": "Turbidity"
                  }
                ]
              }
            ],
            "documentation": [
              {
                "type": "documentation",
                "label": "EX-TEST-202"
              }
            ],
            "id": "42cf5de4-2c64-48fc-a4d8-9e74066c36a3",
            "prefix": "Single Stage",
            "title": "Turbidity",
            "code": {
              "coding": [
                {
                  "code": "C96103",
                  "system": "http://ncicb.nci.nih.gov/xml/owl/EVS/Thesaurus.owl",
                  "display": "Proprietary"
                }
              ],
              "text": "Spectrophotometer"
            },
            "goalId": [
              "2897e150-8465-48c7-9269-1cda86dc3075"
            ]
          },
          {
            "reason": [
              {
                "extension": [
                  {
                    "url": "http://hl7.org/fhir/us/pq-cmc-fda/StructureDefinition/pq-hierarchical-level-extension",
                    "valuePositiveInt": 1
                  }
                ],
                "coding": [
                  {
                    "code": "C205026",
                    "system": "http://ncicb.nci.nih.gov/xml/owl/EVS/Thesaurus.owl",
                    "display": "Organoleptic"
                  }
                ]
              },
              {
                "extension": [
                  {
                    "url": "http://hl7.org/fhir/us/pq-cmc-fda/StructureDefinition/pq-hierarchical-level-extension",
                    "valuePositiveInt": 2
                  }
                ],
                "coding": [
                  {
                    "code": "C139027",
                    "system": "http://ncicb.nci.nih.gov/xml/owl/EVS/Thesaurus.owl",
                    "display": "Odor"
                  }
                ]
              }
            ],
            "documentation": [
              {
                "type": "documentation",
                "label": "EX-TEST-203"
              }
            ],
            "id": "c552eee7-4dca-4a01-b291-5044d5132cc9",
            "prefix": "Single Stage",
            "title": "Smell and taste",
            "code": {
              "coding": [
                {
                  "code": "C96103",
                  "system": "http://ncicb.nci.nih.gov/xml/owl/EVS/Thesaurus.owl",
                  "display": "Proprietary"
                }
              ],
              "text": "Smell"
            },
            "goalId": [
              "9c86ccba-a210-4ce5-9a23-b145d9f123c6"
            ]
          },
          {
            "reason": [
              {
                "extension": [
                  {
                    "url": "http://hl7.org/fhir/us/pq-cmc-fda/StructureDefinition/pq-hierarchical-level-extension",
                    "valuePositiveInt": 1
                  }
                ],
                "coding": [
                  {
                    "code": "C134264",
                    "system": "http://ncicb.nci.nih.gov/xml/owl/EVS/Thesaurus.owl",
                    "display": "Hardness"
                  }
                ]
              }
            ],
            "documentation": [
              {
                "type": "documentation",
                "label": "EX-TEST-204"
              }
            ],
            "id": "b33b402a-0dc7-4953-a7b8-aa2efeb8434f",
            "prefix": "Single Stage",
            "title": "Total hardness",
            "code": {
              "coding": [
                {
                  "code": "C96103",
                  "system": "http://ncicb.nci.nih.gov/xml/owl/EVS/Thesaurus.owl",
                  "display": "Proprietary"
                }
              ],
              "text": "Titration"
            },
            "goalId": [
              "de0f0d85-5617-4b07-98fc-9976b2dbf216"
            ]
          }
        ],
        "identifier": [
          {
            "value": "WaterSpecification"
          }
        ],
        "version": "1.0",
        "title": "Water Specification Example",
        "status": "active",
        "subjectReference": {
          "reference": "urn:uuid:d3a11b25-e160-4688-b807-6383364096fd"
        },
        "date": "2023-12-01",
        "goal": [
          {
            "id": "1779ee35-8725-4322-ae82-89ed499f6864",
            "description": {
              "text": "<=12 deg"
            },
            "addresses": [
              {
                "coding": [
                  {
                    "code": "C134029",
                    "system": "http://ncicb.nci.nih.gov/xml/owl/EVS/Thesaurus.owl",
                    "display": "Release"
                  }
                ]
              }
            ],
            "target": [
              {
                "detailQuantity": {
                  "value": 12,
                  "code": "deg",
                  "system": "http://unitsofmeasure.org",
                  "unit": "degree",
                  "comparator": "<="
                }
              }
            ]
          },
          {
            "id": "2897e150-8465-48c7-9269-1cda86dc3075",
            "description": {
              "text": "Conforms to reference standard"
            },
            "addresses": [
              {
                "coding": [
                  {
                    "code": "C134029",
                    "system": "http://ncicb.nci.nih.gov/xml/owl/EVS/Thesaurus.owl",
                    "display": "Release"
                  }
                ]
              }
            ],
            "target": [
              {
                "detailString": "Conforms to reference standard"
              }
            ]
          },
          {
            "id": "9c86ccba-a210-4ce5-9a23-b145d9f123c6",
            "description": {
              "text": "Odorless"
            },
            "addresses": [
              {
                "coding": [
                  {
                    "code": "C134029",
                    "system": "http://ncicb.nci.nih.gov/xml/owl/EVS/Thesaurus.owl",
                    "display": "Release"
                  }
                ]
              }
            ],
            "target": [
              {
                "detailString": "Odorless"
              }
            ]
          },
          {
            "id": "de0f0d85-5617-4b07-98fc-9976b2dbf216",
            "description": {
              "text": "<= 395mg/L"
            },
            "addresses": [
              {
                "coding": [
                  {
                    "code": "C134029",
                    "system": "http://ncicb.nci.nih.gov/xml/owl/EVS/Thesaurus.owl",
                    "display": "Release"
                  }
                ]
              }
            ],
            "target": [
              {
                "detailQuantity": {
                  "value": 395,
                  "code": "mg",
                  "system": "http://unitsofmeasure.org",
                  "unit": "milligram",
                  "comparator": "<="
                }
              }
            ]
          }
        ]
      },
      "fullUrl": "urn:uuid:5819b223-d3d2-419f-b617-b3a9a3625b89"
    },
    {
      "resource": {
        "resourceType": "Organization",
        "id": "49438799-e286-432c-b8d8-68ac77e7f519",
        "meta": {
          "profile": [
            "http://hl7.org/fhir/us/pq-cmc-fda/StructureDefinition/cmc-organization"
          ]
        },
        "identifier": [
          {
            "system": "urn:oid:1.3.6.1.4.1.519.1",
            "type": {
              "coding": [
                {
                  "code": "C134003",
                  "system": "http://ncicb.nci.nih.gov/xml/owl/EVS/Thesaurus.owl",
                  "display": "DUNS"
                }
              ]
            },
            "value": "143265625"
          }
        ],
        "name": "J. Jones Research",
        "contact": [
          {
            "address": {
              "type": "postal",
              "line": [
                "123 Broad Way"
              ],
              "state": "NY",
              "city": "New York",
              "country": "USA",
              "postalCode": "00062",
              "text": "J. Jones Research, 123 Broad Way, New York, NY, United States"
            }
          }
        ]
      },
      "fullUrl": "urn:uuid:49438799-e286-432c-b8d8-68ac77e7f519"
    }
  ]
}
